,Frame,CoM pos x,CoM pos y,CoM pos z,CoM vel x,CoM vel y,CoM vel z,CoM acc x,CoM acc y,CoM acc z
0,0,-2.53785115673772,-0.130656593126622,0.924312340056422,0.0341105610503027,0.0193634133776472,0.0217882970814286,0.073530319917258,-0.311906375699109,0.0686154886617352
1,1,-2.5375362230078,-0.129551816993341,0.924615179125474,0.0346546174625886,0.0305759158354098,0.020165600369899,0.403339110903729,-0.565584168696447,0.326798216384398
2,2,-2.53723678974816,-0.128420898238015,0.924920252084462,0.0322941277779143,0.0379866748524025,0.0183186573975666,0.30438720929235,-0.394407155231229,0.13175871305944
3,3,-2.5369291832754,-0.127299725783527,0.925227732510592,0.0303035862536487,0.045655566786658,0.0166804038626955,0.0411256671443533,-0.441241643253801,-0.118203013621506
4,4,-2.53659008020866,-0.126224690345072,0.92553766409474,0.0279071852250136,0.0523310777725908,0.0153431171883004,-0.163578137730882,-0.357700245397461,-0.17061923957555
5,5,-2.53619646587759,-0.125232644463508,0.925850017180953,0.0268531563322072,0.0588025255226609,0.0146942159579968,-0.229687525459227,-0.397011421089563,-0.313277822909584
6,6,-2.53574018940355,-0.124314782569,0.926169580410809,0.0324507191967118,0.0669003486252366,0.0143959252782186,-0.237405035533968,-0.239830491147827,-0.684672713602302
7,7,-2.5352374522028,-0.12344740482742,0.926496455008179,0.0377912693132923,0.070901103367881,0.014604065956631,-0.266244739939212,-0.207960984254919,-0.855797452887411
8,8,-2.53470163316848,-0.12264521578896,0.92682347328447,0.0405200579237152,0.0703591796145167,0.0149281537269873,-0.293673069872525,-0.167189466132386,-0.6593668406721
9,9,-2.53414561893713,-0.121922797982809,0.927143218783842,0.0401601683847466,0.0678535874209887,0.0150919793762163,-0.291934932312537,-0.141234373287048,-0.360382141814903
10,10,-2.53358181921343,-0.1212946688251,0.927447987115534,0.0370353388391464,0.0628982738050639,0.0148640468096909,-0.290992431686055,0.0320240073512437,-0.0663579068134638
11,11,-2.53298119253559,-0.120772511128999,0.927744856356147,0.03633455610814,0.059001921235208,0.0134430246637294,-0.0486494325335073,-0.0502606092573767,-0.214313513966743
12,12,-2.53233503816696,-0.120347069749882,0.928038663289725,0.0344960253876163,0.0529274360634981,0.0115568160261899,-0.0666710335422147,-0.0022074973043905,-0.233250401555589
13,13,-2.53168595040606,-0.120001314271937,0.928318163538079,0.0326040052176374,0.0466671484750137,0.00937985346176064,-0.104210879868486,-0.0585040508976711,-0.358689091608754
14,14,-2.53107651743979,-0.119718083753416,0.928572124455257,0.0316837182073937,0.0420369124294745,0.0071021849470037,-0.176010012289954,-0.157162586006913,-0.492769420744132
15,15,-2.53054935618186,-0.119480128343134,0.928789325847394,0.0318292160992318,0.0381486287587844,0.00493237973911014,-0.339944222455417,-0.0205371132824632,-0.590081685046645
16,16,-2.53010524364828,-0.119300422232327,0.928973714650579,0.0313494795425727,0.0350534300499564,0.00209158346689672,-0.153581635021577,0.0119570609304582,-0.565131312245596
17,17,-2.5297153822128,-0.119190731520089,0.929132870248571,0.0312165764171263,0.0324278062722005,-0.00128835077748878,-0.0886036835572179,0.0304199843947145,-0.509244923913829
18,18,-2.52937825582489,-0.119131645108725,0.929260623852126,0.0298931474422088,0.0286493349350614,-0.00512918108487914,-0.0211535078745555,0.0723439125514538,-0.456724501663529
19,19,-2.52909255740724,-0.119103340964373,0.929350244509919,0.0262959423762973,0.0251643350558192,-0.00922540042829063,0.215089013179935,-0.100484189123655,-0.310554761961058
20,20,-2.52885710887433,-0.119085674180807,0.929394553998017,0.0237006538867996,0.0207194064864203,-0.0127231970278348,0.197231337649525,-0.103742834375594,-0.28943342837442
21,21,-2.52869007825215,-0.119074633528261,0.929387292987119,0.0218968999014953,0.0154869250441518,-0.0154441189533098,0.223803118190462,-0.11665401501645,-0.200608885071708
22,22,-2.52859230877763,-0.119083268376481,0.929332483464088,0.0203953134097715,0.0102901117176073,-0.0176753709612035,0.24293910897015,-0.170068857944975,-0.163429355915861
23,23,-2.52853663231507,-0.119117095057742,0.929238224640359,0.0191452033870626,0.00546325002688368,-0.0196735438634286,0.22168283940043,-0.220292606746102,-0.208948644476665
24,24,-2.52849591783312,-0.11918182827151,0.92911268971406,0.0175914252387068,0.000182510650437769,-0.0218310672132291,0.202560115426216,-0.237441834357644,-0.201162342713462
25,25,-2.52844311756209,-0.119283269715696,0.928964174966941,0.0154724745865244,-0.00437422081221758,-0.0243196890536969,0.184740028920869,-0.269404702416544,-0.23799236631329
26,26,-2.52837402165382,-0.119421131539015,0.928800113895978,0.0127983831876808,-0.00895558927604712,-0.0269924194615958,0.18626110217791,-0.3377263971622,-0.228195219063856
27,27,-2.52830664801245,-0.119591969032458,0.928615464980068,0.00961613292543608,-0.0141630633188279,-0.0296486103243027,0.239864328065096,-0.358076960283739,-0.156629404639877
28,28,-2.52824736992624,-0.119796690430548,0.928399966542576,0.00643176358793543,-0.0187003475896337,-0.0323505773428183,0.183900337641466,-0.434557271927813,-0.147116223278296
29,29,-2.52820260084026,-0.120035975552999,0.928143254810257,0.0033082182663258,-0.0230119247167276,-0.0352477192316169,0.0778215045546463,-0.402557377709644,-0.103505881432269
30,30,-2.52817880252436,-0.120310232174393,0.927834746092651,0.000470609411076077,-0.0273533433496277,-0.0385277218358923,-0.0818264829338184,-0.310069886308375,-0.114404760934253
31,31,-2.52817454957277,-0.120579673494005,0.927476445304075,-0.001681194054978,-0.0307387708855477,-0.0422043245282783,-0.22146167451603,-0.192076285980482,-0.181910181141848
32,32,-2.52818575034443,-0.120843643243431,0.92707651792671,-0.0020820097372772,-0.034891642833966,-0.0459761699287927,-0.403244265775735,-0.0224063242790255,-0.34996959140419
33,33,-2.52821478886373,-0.121161010809959,0.926633143325206,-0.00212699823022636,-0.0399002541947604,-0.049956291415321,-0.46736558630301,0.138197283936911,-0.401437724306218
34,34,-2.52826388129256,-0.121590642884818,0.926144074760932,-0.0017071026182541,-0.0468114367793711,-0.0540922240144327,-0.494437727713711,0.1592958274467,-0.63314459255845
35,35,-2.52833505616848,-0.122191441783557,0.925606555629278,-0.00191155476545359,-0.057010332617347,-0.0585400709103874,-0.437893727778806,0.103090340090075,-0.709607800486837
36,36,-2.52843707138652,-0.122971855730893,0.924995972961941,-0.00322209652914822,-0.0704341740950214,-0.0646054759562972,-0.355064066611229,-0.00589341141493162,-0.701018248400655
37,37,-2.52856829272646,-0.123891957334894,0.924314458354808,-0.00545911383718605,-0.0866796635747084,-0.072241463608844,-0.314896215324159,0.200180181267543,-0.58134205687403
38,38,-2.52871504601389,-0.124938249758828,0.923598573681498,-0.00797531361694707,-0.104489959463514,-0.0794301870916077,-0.396446425850176,0.518540961636963,-0.64602744273707
39,39,-2.52886372130017,-0.126097396626726,0.922884382712007,-0.0118830241541535,-0.120386048599503,-0.0848379201161512,-0.186872847998248,-0.167267017079256,-0.485009282948018
40,40,-2.52900078938487,-0.127356228734503,0.922207517480269,-0.0160164876520351,-0.133360187419405,-0.0864810418517593,-0.0692722472689734,-0.479771375126991,-0.361783226975356
41,41,-2.52909357990618,-0.128848943666416,0.92153069317528,-0.0178980632436696,-0.146819978279945,-0.083699869562692,-0.324535187185577,-0.338150613064026,0.108292218645192
42,42,-2.52915082737642,-0.130583739158343,0.920829423761285,-0.018444744641374,-0.158328540009916,-0.0763189439385709,-0.231788716456388,-1.43159664653835,0.000840463464988017
43,43,-2.52922134342802,-0.132358952594353,0.920158068151457,-0.0212758525519995,-0.163945620200196,-0.0664524088164078,-1.11870678333642,-1.19178584647971,0.355397021274942
44,44,-2.52935424132185,-0.133973455371693,0.91957071051844,-0.0230273155466569,-0.159492629797362,-0.0549410660824832,-0.818868831957202,-2.48600263525626,1.22966704932002
45,45,-2.52959906808477,-0.135226750144213,0.919121369033862,-0.0235669353049206,-0.155860608011723,-0.04385731741346,-1.03320584790764,-1.18359200700329,2.44973662463233
46,46,-2.53004131032607,-0.136049586052333,0.918840871279741,-0.0189902138693609,-0.144084282815649,-0.0299090792436854,-0.131432545596447,0.429063338585947,2.99054677127422
47,47,-2.53064957110626,-0.136577242691795,0.918693245270483,-0.0164772873595213,-0.111540917953072,-0.0129206525959379,1.12802530635068,1.92758209351549,3.00256426222594
48,48,-2.53129773419549,-0.136915991204582,0.918632263922303,-0.0179776129729558,-0.0624473567151917,0.00439817719071999,1.41591993500556,1.93551188979795,2.02869699332004
49,49,-2.53185809318989,-0.137170927270818,0.918610826669544,-0.0212189722345467,-0.0133977447528798,0.0194711402200067,0.526832216996855,0.102005940688194,0.310679927169467
50,50,-2.53220139020006,-0.13744605746836,0.918580852043191,-0.0263102717364609,0.0149396124666579,0.0284008403541956,-0.342269401500579,-0.0780929946489936,-0.817690175179062
51,51,-2.53225744093592,-0.137700617418912,0.918550786218332,-0.0305033380952536,0.0195978187054458,0.0285598189541312,-0.555908224146369,-0.471253756019592,-1.14351209793863
52,52,-2.53211155308531,-0.137865036170624,0.918552196727876,-0.0271924066625602,0.0116138346445871,0.0223090073494949,-0.374166899624228,0.0846539004449035,-0.763056381946486
53,53,-2.5318673191799,-0.137999700632841,0.918571399109688,-0.018585355156074,-0.00154651990639555,0.0129842316591367,-0.00873778331516041,0.198650451064247,-0.507403174542549
54,54,-2.5316283840446,-0.138164881156767,0.918594616499962,-0.00988773305713119,-0.0177532327425671,0.00374608769961621,-0.205036323907881,-0.0355753926381603,-0.28767033950389
55,55,-2.53149824771507,-0.138420678186706,0.918607862766232,-0.00491339015268631,-0.0297622759993343,-0.00241789930097427,-0.437108046681319,-0.361436834696662,-0.270165907728907
56,56,-2.53149266666093,-0.138786845067828,0.91860892921854,-0.00102528288359928,-0.038422671125348,-0.00551232168724468,-0.0257210439522647,-0.0798287842383847,-0.194706522230434
57,57,-2.53154259795921,-0.139223547039161,0.918607232935382,0.00521941549943984,-0.048709991470609,-0.00747371748977535,0.0982161951189685,0.243410286843934,-0.227599931871328
58,58,-2.53162424830674,-0.139701294510187,0.918606049978811,0.0105899022507186,-0.0583862652370556,-0.00865210356400188,-0.160162852018009,0.345067429626314,-0.229457784434994
59,59,-2.53171391162729,-0.140190276357232,0.918608446639046,0.0148769137806967,-0.0637371255106081,-0.0093706423018257,-0.273791359624965,0.0340617767183983,-0.242885684787158
60,60,-2.53178795749424,-0.140660374204945,0.918617299287625,0.0175749085039477,-0.0633194239716229,-0.00974358399374423,-0.0906847940255164,-0.365748341680462,-0.238872304473933
61,61,-2.53184090965239,-0.141109844831385,0.918630994357924,0.0165742211800109,-0.0574557055164742,-0.00947897711880594,0.198186376593925,-0.640474550272503,-0.0791309334021291
62,62,-2.53188846413945,-0.141558612330613,0.918647503374836,0.0114292485367467,-0.0485991984177424,-0.00845496048055372,0.393453387971611,-0.429703610406334,0.182389856862435
63,63,-2.5319387753773,-0.142009011915745,0.918669042036443,0.00397877112772736,-0.0406254001031247,-0.00687696945132561,0.561243510210317,-0.148254527973095,0.201334680642834
64,64,-2.53200007908817,-0.142463359815786,0.918697804482254,-0.00128057214573595,-0.0390137606250424,-0.00490181151049902,0.314231587961648,-0.0311489542469315,0.0118422885407669
65,65,-2.53208070817601,-0.14292388168479,0.918735926843441,-0.00184287629720708,-0.0435206213468514,-0.00313160826245829,0.0340882570176154,0.134880381583447,-0.0045969991288032
66,66,-2.53220998279191,-0.143360595193444,0.918779150389026,0.000595774491260037,-0.0502808868791645,-0.00172721058614278,-0.118115015287773,0.083134726695218,-0.0187975401129779
67,67,-2.53238233914371,-0.143771936035181,0.918826087450895,0.00247898586222152,-0.0593565716808581,-0.000536505485138526,-0.179538260782922,0.0464348100265111,-0.00571763915022186
68,68,-2.53255383874506,-0.144202715620024,0.918883100059402,0.00235449465056533,-0.070171067861546,0.000649519639184862,-0.0757976338670022,0.0147600424930361,0.156249802281188
69,69,-2.53268056963835,-0.144697834373357,0.918956486169655,0.000563007125779401,-0.077293317264031,0.00222657711468154,0.0730581512285074,-0.311001762008321,0.15080897840645
70,70,-2.53271864822107,-0.145302300165249,0.91905248027645,-0.00109690685786128,-0.079999082600795,0.00462610076462937,0.0308115063604678,-0.399793673589198,0.219673388979518
71,71,-2.53265935031994,-0.14604148352567,0.919166001962363,-0.00170201048813734,-0.0814788424532386,0.00816184873287761,0.181320072547562,-0.250657455059212,0.28867863742544
72,72,-2.53253193258567,-0.146885452164266,0.919292868559327,0.000797271710128609,-0.0827123759307341,0.0127130418879214,0.0431097590457326,-0.0132752251134181,0.391445306694957
73,73,-2.53234947790875,-0.147796295100368,0.919440580123997,0.00583934593061565,-0.0834389074351097,0.0176842084265388,0.23075056104423,0.132881437772084,0.54859423191395
74,74,-2.53212505120342,-0.148736052881136,0.919616540978124,0.0128040051916313,-0.0833079639219937,0.022797183599326,0.312601933954861,0.0312523172735093,0.425164613752286
75,75,-2.53187170506374,-0.149666718005873,0.919828044787524,0.0201809380088109,-0.0858628387538621,0.0275643585049669,0.187352342867641,0.265306750902247,0.443994673093402
76,76,-2.53158815907985,-0.150572389908966,0.920080587025988,0.0276843398764286,-0.0930632776732402,0.0322956110675217,0.0463555676795349,0.416163749155548,0.200395434208316
77,77,-2.5312656623613,-0.151478388937934,0.92036903396913,0.0342427180311354,-0.101981059560676,0.037051907883914,0.0637056595418425,0.299258169691264,0.196409810565063
78,78,-2.53090604636623,-0.152408466651519,0.920684666138373,0.0396105860650403,-0.110425700114768,0.0414769684205525,0.106227873255009,0.0388220463679653,0.155492195036107
79,79,-2.53051112915843,-0.153386316308257,0.921018780822818,0.0441877928955247,-0.117159204742628,0.0451098025792449,0.0303720733361129,-0.0416847871546833,0.157762484139733
80,80,-2.53008269531513,-0.154435597333292,0.921362711622908,0.0472115793693953,-0.121702950294063,0.0471965763708063,0.0137208830981082,-0.056372086892599,0.390788250684367
81,81,-2.52958540276268,-0.155600279961029,0.921715105235878,0.0486174378455469,-0.123113868690653,0.0475072800022269,-0.0286357009847094,-0.0115007933955205,-0.106189193876865
82,82,-2.52901783383666,-0.156864504721101,0.922081407733511,0.0493271432748546,-0.124236053986854,0.046402608827259,-0.0852652885421983,-0.0561041209412612,-0.370784369208229
83,83,-2.52843267603734,-0.158162225246234,0.92246340132962,0.0492990581824604,-0.122611291251315,0.044565719258681,-0.119514022292991,-0.166686719886636,-0.531738046248412
84,84,-2.52788273132795,-0.159427434379613,0.922863168359718,0.0487190543997979,-0.118064735448073,0.0425907521666768,0.078514562302887,-0.317151954187741,-0.468069730449271
85,85,-2.52742093917439,-0.160594145221092,0.923283107801528,0.0487773316046954,-0.110882956140274,0.0411942561001028,0.137341454763695,-0.345589841705312,-0.267524271858299
86,86,-2.52708992270348,-0.161661225262294,0.923740542619035,0.048471654024365,-0.0998205416400717,0.0402206608788679,0.114476291189922,-0.349086712009908,-0.40294218789925
87,87,-2.52685436672134,-0.162672760667822,0.924234525232102,0.0457804455364109,-0.0863458453521402,0.0391936619618847,0.124384421778295,-0.126040840189336,-0.416858356498582
88,88,-2.52665049685721,-0.163630572671086,0.924740168985552,0.0405820463162926,-0.0724926235695402,0.0380141511392822,0.238770762948747,0.111706334271031,-0.223199440106935
89,89,-2.52641463536986,-0.164536437392256,0.925232393125946,0.0353128550408073,-0.0594566641872623,0.037209345093099,0.278010072044334,0.363746730176642,-0.177153277740308
90,90,-2.52608319044642,-0.165392085211029,0.925685903378669,0.0313654711481876,-0.047806519890472,0.0368685384966275,0.276084304583801,0.405779692866107,-0.126248759114495
91,91,-2.52562669314694,-0.166191910419476,0.926098528406048,0.0276186973350353,-0.0375410714574878,0.0372647084858358,0.323870672896987,0.423702987512263,-0.119275509148155
92,92,-2.52508782679187,-0.166934697146949,0.926487454509579,0.0240852076645308,-0.0277480153695251,0.0380755068795109,0.356884158387193,0.469469297946843,0.0321843142360211
93,93,-2.52451120155381,-0.167628820830957,0.926856233433861,0.0209748465951784,-0.0189910438849246,0.0391505931445957,0.38275281367571,0.431412431522166,0.111952008110335
94,94,-2.52394130218265,-0.1682827554018,0.927208372968375,0.0187903438870222,-0.0108001526258563,0.0401408076263387,0.398308700844415,0.437620196427974,0.107699297788366
95,95,-2.52342252278559,-0.168905065630034,0.927547353872103,0.0189868593275745,-0.0044170361124509,0.0406165657651793,0.462555509377837,0.343685529263239,-0.0138464024947273
96,96,-2.52296161876414,-0.169499883090153,0.927873755588094,0.0202645512888226,-0.000233276864157327,0.0406959941786332,0.460849382100873,0.26939977359153,-0.0636373163075826
97,97,-2.52252918931131,-0.170061568627152,0.928185814614931,0.0214300485650082,0.00136601691193293,0.0406011491105746,0.408189163945966,0.259301262979317,-0.0907270145450382
98,98,-2.52211527128139,-0.170584202267329,0.928483211345226,0.0231949614764311,0.000295072298284396,0.0398198385688729,0.456023354269735,0.308429260816836,0.0105260363104175
99,99,-2.52170970266176,-0.171062027823174,0.928765191825287,0.0258212507028439,-0.000436112523558345,0.03842017692652,0.436498035079016,0.190966546486363,0.0215220848677736
100,100,-2.52130211180232,-0.171489427447953,0.929030559069446,0.028045786687606,0.000607238262993353,0.0362843910637658,0.391583586567779,-0.0503930390431869,-0.209286105428356
101,101,-2.52088960104597,-0.171863786272208,0.929286562994552,0.0313675101001353,0.00154935007545893,0.033177573088264,0.311345038654872,-0.107209858176114,-0.271383268012513
102,102,-2.52047897108728,-0.172189249859463,0.929533630396247,0.0356967928623588,0.00227021592939915,0.0292928081758648,0.294723998956373,-0.151367868220789,-0.375128057993214
103,103,-2.52007430300437,-0.172470170141958,0.929760084336038,0.0401050508071105,0.00273156639759521,0.0247870607084031,0.207722501459776,-0.0864875598107147,-0.481764495279106
104,104,-2.51967968872845,-0.17271067111031,0.929954283423783,0.0443825238056454,0.00204639294688806,0.019998980891813,0.203364837103768,0.128380722694586,-0.475754535218457
105,105,-2.51929921300655,-0.172914698663786,0.930104608798623,0.0475981918714587,0.00230738584720163,0.0152969460321964,0.155018315325587,0.1545237781235,-0.516674297009103
106,106,-2.51893946774803,-0.173084025697902,0.930205008969745,0.0501005680170033,0.00276186340731293,0.0104653119947774,0.0809112194267692,0.233685693594239,-0.510022558190475
107,107,-2.51859771104715,-0.173215716936729,0.930263072325274,0.0524491756326607,0.00354937595774779,0.00517144907138811,0.0269154831881225,0.336916559494417,-0.511529364098322
108,108,-2.51826403297986,-0.173306552680318,0.930287654700648,0.0538995873799341,0.00493056553256948,-6.24832703383451e-05,0.063300602842216,0.250771375185297,-0.457727537538246
109,109,-2.51792853359792,-0.173353347488718,0.930287595429058,0.0542789571808282,0.0067038269315448,-0.00476452951320095,0.0662591234558228,0.162365579935815,-0.424631763131539
110,110,-2.51758132185373,-0.173352951044195,0.930271716750166,0.0543864681134526,0.00909431271702931,-0.00886783470312502,0.189236325365547,0.173211439055419,-0.39176577009787
111,111,-2.51721890851302,-0.17329953854335,0.930238239412389,0.053651405627761,0.0111400359244561,-0.0119456096193754,0.17179917885447,0.0742849667977759,-0.344721656288716
112,112,-2.5168478981724,-0.173195036043151,0.930181154123398,0.0518287827133604,0.013643919364797,-0.0144919138087925,0.174910232207359,0.0586331868052288,-0.301851484163522
113,113,-2.51647353309397,-0.173048030968295,0.930102897135099,0.0494472076617137,0.0162482674835651,-0.0166089683790695,0.18622927253949,-0.00953978710074981,-0.275292658189565
114,114,-2.51610103659595,-0.172867208425882,0.930005869499685,0.0466148853909143,0.0189832761063456,-0.0185351589518728,0.279645921314721,0.0376583924078017,-0.218937211153012
115,115,-2.51573562239011,-0.172661313276535,0.929892452310043,0.0443827571301698,0.0216323969467162,-0.0203158397558003,0.324833779030875,0.0178287547623483,-0.170831611364713
116,116,-2.51538751699179,-0.172416816141237,0.929767897604849,0.0433129427122526,0.0234007541402753,-0.0216410251306331,0.258887591627085,-0.0683310250633398,-0.150555946276434
117,117,-2.51505325143437,-0.172127907563752,0.929630508087215,0.0427621912969356,0.0244981100779441,-0.0224836328360442,0.265571164446468,-0.010710262498621,-0.0950671601933376
118,118,-2.51471748722771,-0.171814909246605,0.929472245610307,0.0430770974404609,0.0258990086737056,-0.0231058023571983,0.154063972419027,-0.0144745005173952,-0.131786878258281
119,119,-2.51436485998197,-0.171498137684982,0.929285082006207,0.0434398624510924,0.0275241573883882,-0.0239410664953718,0.0642137863530814,0.0822489833991445,-0.123441431778098
120,120,-2.51397997800406,-0.171197919767526,0.929061009517786,0.0427375830611338,0.0308055140660784,-0.0252466141124968,0.0857515860050754,0.0596932998001306,-0.226004911531831
121,121,-2.51353610139038,-0.170938571005735,0.928796336643607,0.041314445405951,0.036015118302299,-0.027034132297067,0.100162207317056,0.0112367910382884,-0.272600966280805
122,122,-2.5130434840006,-0.170706416145784,0.928496531626336,0.0397168483165447,0.0410149999346458,-0.0292265718615095,0.0882210198378778,0.112295528391083,-0.274682122620011
123,123,-2.51254220721583,-0.170464852683655,0.928167327758852,0.0381776799522811,0.0453406742618868,-0.0317001488313785,0.06330605135547,0.103478778752539,-0.346290127511992
124,124,-2.51207235120705,-0.170177363721617,0.927814400364701,0.0363628157834768,0.0482901597510471,-0.0344800313178489,0.0295279816703208,0.160404278222703,-0.338301678415524
125,125,-2.51167397677444,-0.1698075476751,0.927443343509385,0.0339129585578691,0.0509890055884281,-0.0374586885433951,0.0313351223650196,0.172082406148476,-0.289110896156497
126,126,-2.51133777470603,-0.169361633353504,0.927073624430897,0.0311303414765924,0.0554982468863319,-0.040181678451238,0.0471036423166872,0.119958825840756,-0.263643082742785
127,127,-2.51103698903208,-0.168864062673261,0.926701647145832,0.0271716737995979,0.0622158756420743,-0.0428455531454377,0.110672603328155,0.0652382505437433,-0.328460231264658
128,128,-2.51078545092661,-0.168305833858069,0.926298310041025,0.0215088286335937,0.0687631853779537,-0.0460410375937131,0.139005812250286,0.107269673288877,-0.339815783589808
129,129,-2.51059695612714,-0.167677913480507,0.925834461730163,0.0152422854744439,0.0743985729987476,-0.0503289636118729,0.109603898206346,0.19747554946028,-0.364016106608643
130,130,-2.51048525812557,-0.166971223606231,0.925280891749414,0.00816727442109134,0.082358945576774,-0.0560279858793388,0.142232119871054,0.0354786741335344,-0.406272445510638
131,131,-2.510477599256,-0.166225276945041,0.924627898663092,-0.000248595387093488,0.0900138861345319,-0.0643912575760586,0.170951126976858,-0.0372909977400842,-0.443760226369063
132,132,-2.51056458613157,-0.165446431432337,0.923895065631601,-0.0106693239702774,0.0956550915210487,-0.0750832385159973,0.199712457046981,-0.00411248226310789,-0.601671494238886
133,133,-2.51070491721163,-0.164575685580967,0.92309693864454,-0.020169189026427,0.0999929115051693,-0.0862908588356652,0.198039793561302,0.0103502624030285,-0.747377540043582
134,134,-2.5108572005157,-0.163553808041621,0.922247887665124,-0.0282316288716273,0.104264126720014,-0.0960558587676022,-0.0116851271889311,0.111786374423519,-0.880688271967366
135,135,-2.51097999903532,-0.162321308925958,0.921362151767499,-0.0327116380746421,0.109272017177071,-0.102768513272733,0.0251609063775021,0.280393418301696,-0.994653724774855
136,136,-2.51109834708404,-0.160729328971628,0.920343321447843,-0.0319286413531692,0.121858677752253,-0.108037631453009,0.126805679430137,0.127924544641939,-0.844971402468684
137,137,-2.51123924593501,-0.158817348124086,0.919182167554653,-0.0276295884573221,0.14102502246766,-0.113706668036055,0.0686734837206295,0.266225501087179,-0.701231654071382
138,138,-2.51136457471427,-0.156807982856997,0.918023103378461,-0.0197175360699664,0.158436404075459,-0.116041078856484,-0.665913034715546,0.194610735940436,-0.603689673078279
139,139,-2.51143665453984,-0.154923671196456,0.91700967509793,-0.010674311323152,0.168741640366006,-0.112611731713205,-1.09521361412805,0.72079575776561,0.572071276774808
140,140,-2.51141822217971,-0.153386841560836,0.916284823150506,-0.00591519455209435,0.162715887592848,-0.097093644679834,-2.66093485603204,1.02544806007594,1.64317401160375
141,141,-2.51123328063762,-0.1521928600148,0.915915413231736,0.00408824527681946,0.128233396788458,-0.0719906822540067,-1.54552775963397,0.81761253629854,1.53624136096218
142,142,-2.51090705245982,-0.151193437529994,0.915805809275408,0.0161757686383737,0.0914125874688656,-0.0359633215669873,-1.29918074217825,-1.01922464092959,4.50043038971796
143,143,-2.51055444833384,-0.150395758225492,0.915855333661366,0.0232249099872556,0.0569778299200739,0.00225496206067452,1.81011749428296,-1.57196251703281,4.01148015303701
144,144,-2.51029055157769,-0.149806728060896,0.915963096944272,0.0148234476185437,0.0144794231451968,0.0343467044690834,2.62963683935838,-0.611743751308579,3.08102237079321
145,145,-2.51023063445072,-0.149432791623244,0.916027693068966,0.00397357695852145,-0.00415558064942243,0.0537365347809642,1.58352555283091,-0.714479915705476,0.795024614588411
146,146,-2.51050927526056,-0.149435442209137,0.916066254768964,0.00605192405801335,-0.0114029805781861,0.0571288113181192,-0.185266914877258,-0.0660302539899657,-1.46580860540155
147,147,-2.51105022104193,-0.149810274872431,0.916146799725061,0.00614414164874801,-0.0146239725570912,0.0481446344778212,-0.925224882329456,0.653382340467043,-1.71161298182978
148,148,-2.51165234836047,-0.150314722117358,0.916243605016967,0.00319617282937823,-0.00904483771896828,0.0329933839120144,-0.873631449813227,0.375235498415656,-1.59667822209574
149,149,-2.5121142436099,-0.150706367598263,0.916330599330484,0.00256113075816631,0.00208372526743713,0.0172395095488643,-0.775849688917328,0.306870690365822,-1.42537152504966
150,150,-2.51223429976605,-0.150742911685863,0.91638141505038,0.00272217816405429,0.0122962432654438,0.00615466173950522,-0.822726774171138,0.531644311951059,-1.08531836800339
151,151,-2.51190367396593,-0.15033348479774,0.916388165333653,0.00220683062663256,0.0207986734397742,-0.000416567323616513,-0.736440610099123,0.619839809443334,-1.00975914316312
152,152,-2.51125676156929,-0.149639545124482,0.916368195929959,0.00159483198084922,0.0330509719593427,-0.00602552635332422,-0.378541331924302,0.517788017550031,-0.706176178731179
153,153,-2.51045673713087,-0.148797361842056,0.916332934550776,0.00324023697006661,0.0472531531618353,-0.0101161189852977,-0.410890496616387,0.452253658614386,-0.551988472479684
154,154,-2.50966662131647,-0.14794341699288,0.916293841897937,0.00423336617527642,0.0623553958561214,-0.0129462840210212,-0.0403720478538325,0.322681845417542,-0.0147820865672803
155,155,-2.50904923966728,-0.147214439185717,0.91626235985266,0.00621258727105817,0.069085579715434,-0.0148764098034547,0.525213088522666,0.512525129614014,0.659220238183379
156,156,-2.50862208549535,-0.14660204126444,0.916229483398168,0.0131556161271215,0.0670958655071238,-0.0148043190345304,0.369077043190578,0.461324907140657,0.689628667740713
157,157,-2.50827649425303,-0.146015266884254,0.916187676229155,0.0204046953975504,0.0628002916829833,-0.0129564842698709,0.212036565314787,0.139689047744136,0.535554687917975
158,158,-2.50798598114537,-0.14546706760959,0.916150523567092,0.0276364906186685,0.0588270870001855,-0.00967810577338569,-0.19044664259872,0.0472493623872344,0.206215403992314
159,159,-2.50772408586983,-0.144970327172747,0.91613155534236,0.0346879657329085,0.0549670915816395,-0.00573235945153131,-0.106042123617751,0.195285367101134,0.0673037353767076
160,160,-2.50746436984177,-0.144537853516787,0.916144248819905,0.0414849282458081,0.0514197266893199,-0.00151409873620208,-0.0911251174412767,0.213367494492094,-0.054226443242792
161,161,-2.50718164076791,-0.144201498713016,0.916192271846142,0.0462860684281228,0.0502454870359261,0.00352145990301626,-0.29447914045399,0.0757516310973574,-0.0896441633967792
162,162,-2.5068935224438,-0.14395260231733,0.916266616725032,0.0467270323913252,0.0508366885293287,0.00937763753818673,-0.247707196447203,-0.0912566825647042,0.055198060802125
163,163,-2.50663784212958,-0.143743142398283,0.916361724966889,0.0443177349533005,0.0519212459262736,0.0151857209647465,-0.193427734314843,-0.0883278925712956,0.525910278966964
164,164,-2.50645246451584,-0.143525148318003,0.916472062982172,0.0394711309739818,0.0536046188519005,0.020444518159227,0.0824899510162731,0.0403933945296957,0.78581056077388
165,165,-2.50637527342911,-0.143250725646171,0.916592099965622,0.0325928118640819,0.0546465284753627,0.0245838697426645,0.243928735788859,0.185236267040331,0.880091548387956
166,166,-2.50645105669936,-0.142978621356668,0.916709645355869,0.0239915066351251,0.0556751745361752,0.0277306604805495,0.182178969000902,-0.0171705205557033,0.697399576273635
167,167,-2.50665463738168,-0.142740704315838,0.916828388177063,0.0123432781597008,0.0591370909929681,0.0300547419280115,0.199314384037739,-0.517860142019289,0.521670215578304
168,168,-2.50691888417571,-0.142448817503264,0.916966536598131,0.000892095933454635,0.0622274460834933,0.0317363117771185,0.0884271073794742,-0.656599516668673,0.432256497212883
169,169,-2.50717660926585,-0.142014790590916,0.917142216967198,-0.00847541989302054,0.0646629751453969,0.0332812409860123,-0.219848468425072,-0.549182710316164,0.18301269478131
170,170,-2.50736056246831,-0.141350438873757,0.917373458181991,-0.0161353177013167,0.0676617557795348,0.0350847461836979,-0.387675088627563,-0.506794753277304,-0.0108044697755625
171,171,-2.50744449176185,-0.140376308284763,0.917674469646363,-0.0218376426555976,0.0760734047027841,0.0371747835384281,-0.518022291120286,-0.598133039931374,0.0314638990892965
172,172,-2.50747303187645,-0.13915112901703,0.918032706498678,-0.0255603208161975,0.0885767556744759,0.0392942846208395,-0.557809524480008,-0.37243160771579,0.0591593066606882
173,173,-2.50748519758104,-0.137794014840663,0.918426188054254,-0.0269361733335515,0.10310768142113,0.0411994353806358,-0.713280059463463,0.0674946910668891,0.190413987472819
174,174,-2.50752003030712,-0.136424102701116,0.918833292556197,-0.0266679279312137,0.115212104916561,0.0423318116638758,-0.513046683937341,0.466579645186751,0.510088044804721
175,175,-2.5076166230816,-0.135160552334276,0.919232839493751,-0.0250639516002167,0.120123529653065,0.04251242343271,-0.508423066406728,0.861806674510773,0.536564865256736
176,176,-2.50781911112352,-0.133999780232662,0.91962399151937,-0.0252460239318289,0.120520995104824,0.0412929492458758,-0.0696267799450923,0.791003164415355,0.330024595339078
177,177,-2.50810125745938,-0.132862407276591,0.920021420160819,-0.0276703854278321,0.116799495379469,0.0389311791623937,0.253592533325705,0.711647392815573,0.297935083088162
178,178,-2.50839669167607,-0.131753916231629,0.920427495729281,-0.0294931686267076,0.108699508311961,0.0362069128600194,0.221042980317637,0.589917389038118,-0.190985468227773
179,179,-2.50863907923365,-0.130679788160373,0.920844395260108,-0.0312654007151267,0.10104080010074,0.0332800066468409,0.211589631192583,0.0739856029383642,-0.499885241220763
180,180,-2.50876211067723,-0.129645503699759,0.921274084427738,-0.0308257700045062,0.0931202579476325,0.0304999851154986,0.0706226576492082,-0.151962370578415,-0.632182590640369
181,181,-2.50875658662345,-0.128621399159594,0.921732662316791,-0.0259313169107566,0.0853616443421293,0.0272962316448128,-0.20956759986344,-0.161548733801226,-1.07903688314654
182,182,-2.50866661651011,-0.127604077370724,0.922219248904426,-0.0173378647794217,0.0721505026026489,0.0235370876277202,-0.251200365482786,-0.277861674571383,-1.15181557006751
183,183,-2.50850591893968,-0.126638247585289,0.922710198915109,-0.00708349998736024,0.0573578296090876,0.0198354503543518,-0.176920940703519,-0.346211329436929,-0.869786504828035
184,184,-2.50828831109937,-0.125768331393867,0.923181806441327,0.00372077807098974,0.0401136965044975,0.0169845947171637,-0.137165388857399,-0.272284781125799,-0.631333607556239
185,185,-2.5080278005136,-0.125038358650251,0.923610404525092,0.0125667190169902,0.025944253217704,0.0157307507431725,-0.0701011661132687,-0.336829278560309,-0.193636866923913
186,186,-2.50766508686544,-0.124488011828919,0.923996209827208,0.0227900963614642,0.0172611177367328,0.0161946367493919,0.206024002294749,-0.154770710733749,0.0392633171324247
187,187,-2.5071913943949,-0.124087120146462,0.924356206905451,0.0346910678509518,0.0112305722603782,0.0183320767775894,0.111672501130034,-0.30427048877328,0.0877777744294082
188,188,-2.50669667868194,-0.123774631330018,0.924691731728693,0.0461238741402861,0.00717076597176589,0.0212181440246405,0.0228579530725904,-0.383471133436811,0.140958408094823
189,189,-2.50627070701909,-0.123489623644504,0.925003529346616,0.0554186721158452,0.00576779798214151,0.0238782280967331,-0.0135358387886543,-0.52648535690277,0.074507001814955
190,190,-2.50600296972376,-0.123171372694173,0.925291651755832,0.0610749747122981,0.00424991689215341,0.0251756381823104,-0.0713253742628866,-0.37992822292291,-0.105633039979993
191,191,-2.50595342232372,-0.122798529717708,0.925551260613053,0.0648637601028579,0.00980174800549156,0.024226020290183,0.166015475192859,-0.251811712188956,-0.473130326424383
192,192,-2.5060628668181,-0.122410369170389,0.925782902256998,0.0597702869636186,0.0151798375461271,0.0228326992663295,0.181910351665151,-0.129115544722782,-0.492679384525334
193,193,-2.50624165229445,-0.12203809306298,0.925993724133709,0.0483341741067695,0.0203427253742102,0.0211973213568126,0.139991137431116,-0.140463289001191,-0.326288832457483
194,194,-2.50639987151774,-0.121714006923648,0.926190161305072,0.0353006989761718,0.0228749213528639,0.0197444606651423,-0.115148812830628,-0.0625140613965034,-0.178739299184706
195,195,-2.50644733646112,-0.121471430464969,0.926377955844375,0.0223003053701485,0.0214024464628339,0.0188125040639035,-0.333121794686269,0.0387453352379558,-0.0290532435219371
196,196,-2.50636318408657,-0.121291242751453,0.926558453306484,0.0179492607925003,0.018806565688598,0.0173099382298871,-0.0934309666373125,-0.0416579977517812,-0.24438463389962
197,197,-2.50620724298079,-0.12115237343266,0.926726958560741,0.0164192755734599,0.0137016109638649,0.0153388641569793,0.096212141261813,-0.112273483724272,-0.158917814450904
198,198,-2.50601007377952,-0.121085799466709,0.926879611218492,0.0172244764578697,0.0080752294022108,0.0132570744851563,0.153829963303528,-0.170869603767958,-0.280431510748952
199,199,-2.50580215375373,-0.121122483166127,0.927012445732926,0.017875587641433,0.0034908315033996,0.0108093973120125,0.294938461514682,-0.409527144350735,-0.287203902444852
200,200,-2.50561391578057,-0.121293389137193,0.927121447809001,0.0186247604975255,-0.00161279585052769,0.00796319897251525,0.223620398826826,-0.440542566867739,-0.276643456228761
201,201,-2.50540506020769,-0.121651447304145,0.927221435676889,0.0194168680397899,-0.00730432223520792,0.00481767965001535,0.177005940520512,-0.314171166482605,-0.217684974809805
202,202,-2.50515467293534,-0.122176656436599,0.927314603964078,0.0201158545312894,-0.0143810457192152,0.00122117893158885,0.185567820462318,-0.288052190999059,-0.262252520976762
203,203,-2.50492260467563,-0.122790235360274,0.927377788625643,0.0202150145793688,-0.0225150846075352,-0.00298586241162816,0.170232231746615,-0.180119949346183,-0.317765874735964
204,204,-2.50476922767166,-0.123413058252284,0.92738750425295,0.0198663890998453,-0.0310938558898473,-0.00785221004471263,0.13020803772484,-0.0181993494809922,-0.459521985461213
205,205,-2.50475532131916,-0.123965851162709,0.927320066054485,0.0184235127165956,-0.0393462237680943,-0.013519818779128,0.0408418229754762,-0.0187668728440707,-0.562628220696776
206,206,-2.50490599282518,-0.124429938335733,0.927177128559769,0.0141927171278436,-0.0436558364936852,-0.0204042266118481,-0.0978166250277042,-0.13418311636196,-0.598618679288027
207,207,-2.50518108201547,-0.124858150618334,0.926974305173207,0.00633033125247358,-0.043405398947129,-0.0284170806644566,-0.106187871250928,-0.250118831255962,-0.598099270762554
208,208,-2.50554341353793,-0.125278539657551,0.926709002401275,-0.00297433888438439,-0.041633948492808,-0.0368967487899447,-0.0486459264200081,-0.293612749345806,-0.60769092691933
209,209,-2.50595571765499,-0.125719102452328,0.92637875723191,-0.0115416623334892,-0.0426626857852244,-0.0451546299706144,0.0120453488828758,-0.165514868381549,-0.653098815404215
210,210,-2.5063807399641,-0.126207637585138,0.92598118295124,-0.0180871193379307,-0.0486051452480188,-0.0525698997287194,0.00502991938705252,-0.0316082259511967,-0.684306026290934
211,211,-2.50684562815047,-0.126669189071571,0.925504943704695,-0.0220412122464691,-0.0583150092895383,-0.0595206714841639,0.0952098031061018,0.0477419663322909,-0.707634622254433
212,212,-2.50737505416165,-0.12708542754477,0.924953284496258,-0.0249657454721376,-0.0699593978732922,-0.0663760328661483,0.162168285679503,0.0274541891547821,-0.617754995153513
213,213,-2.50792816669899,-0.12756857914465,0.924345378653833,-0.0268588255500575,-0.0836350995393668,-0.0727207985464488,0.154560989274137,-0.0597878493038886,-0.602120269713489
214,214,-2.50846418733395,-0.128230430674536,0.923699745665801,-0.0278717925504985,-0.0985301754598913,-0.07807070582793,0.0381395897274392,-0.0170047834075969,-0.550911136919476
215,215,-2.50894230277423,-0.129182275505355,0.923034113388662,-0.0278270348813951,-0.11501441456966,-0.0818409930708738,-0.240917056449468,0.163615355614818,-0.623256356208754
216,216,-2.50936331370888,-0.1304971386006,0.922300046806659,-0.0274988083605279,-0.133571778051252,-0.086431485201213,-0.514019250858548,0.303040021668914,-0.659437630796229
217,217,-2.50975393500137,-0.132099161745181,0.921487203221847,-0.0292042819845165,-0.15019609608772,-0.0927098932109388,-0.28030553972716,-0.599680648741951,-0.324294122940164
218,218,-2.51011229988522,-0.133876435940818,0.920668498633158,-0.0323214808636157,-0.168345588732113,-0.097651242171161,-0.357827396117831,-0.576973940988977,0.215709962950314
219,219,-2.51043698407794,-0.135717862161221,0.919914918161162,-0.0324219447261839,-0.183694529961199,-0.0960286259171587,-0.284087020050891,-0.870439115735412,-0.344650316296941
220,220,-2.51072706063725,-0.137513272956238,0.919295784167824,-0.038850309023814,-0.185604946355551,-0.0895971421699201,-0.561989772361911,-1.48891783643095,0.534002806456918
221,221,-2.51093514845768,-0.139407231480365,0.918820174047721,-0.0513551308076296,-0.175518552184469,-0.067546357681535,-1.30126616119754,-2.18302921776661,1.06504252221498
222,222,-2.5110616872325,-0.141473047833857,0.918439855478562,-0.0653691004135063,-0.162360943556833,-0.0368809167101392,-0.371321242124707,-2.07551643984884,2.38316337955222
223,223,-2.51117820994858,-0.143495064610823,0.918137627283287,-0.0691260595054565,-0.155640633388483,-0.00369461223396024,0.0958197914966406,-0.0535430837761342,3.6033240236195
224,224,-2.51135684672673,-0.145258362109503,0.917896257054269,-0.0656320237431937,-0.145776096096125,0.0251735092561266,1.69221773102183,1.46591827682618,4.17935987967573
225,225,-2.51167021398785,-0.146548498992845,0.917698392401455,-0.051061398627329,-0.127460618410748,0.0422728176102857,2.72124253109741,2.44912849053815,2.74124095447327
226,226,-2.51223552657832,-0.147207218588443,0.917563484713208,-0.0328391454490003,-0.105148664297714,0.0467134511680776,0.809591394392143,1.56775598907836,0.935373222645056
227,227,-2.5130051971751,-0.147378848616108,0.917503230286561,-0.0225536754084036,-0.0786712463182243,0.042249319771191,-0.140010334422739,0.074346146421939,-0.657530042504399
228,228,-2.51380440104321,-0.147302393552417,0.917488571748361,-0.0215532233787419,-0.0554290733678275,0.0325367231288142,-0.724884150030392,-0.983652950342336,-1.61738883850999
229,229,-2.51445798835638,-0.147216416159579,0.917489635376111,-0.0240039558276865,-0.0391866048187948,0.0212247319339096,-0.857975661247912,-0.61393172665115,-1.33520698677373
230,230,-2.51479072287941,-0.147359386616645,0.917475709244517,-0.0216830415609423,-0.0230576831570004,0.0126940165192195,-0.283342663913532,-0.288162207550099,-1.0479665142403
231,231,-2.51468916880873,-0.147740310413674,0.917444784402579,-0.0151778303702643,-0.0145529860452246,0.00751201966284782,-0.0177943492257021,-0.222937279884226,-0.618931394680383
232,232,-2.51426998982183,-0.148200390878539,0.917417534704638,-0.00779187456457106,-0.0206398960720025,0.00333831858771642,-0.469240400199754,-0.171384068396455,-0.437554360399112
233,233,-2.5137032289503,-0.148726345641577,0.917396899520161,-0.00463895409592291,-0.0351524027056837,-0.000194120550020745,-0.198938806328786,-0.16435483295518,-0.0604703437926544
234,234,-2.5131588103277,-0.149304378065443,0.917385115041627,0.00429986689370117,-0.0540971497444057,-0.00289890269627648,0.292176848923309,0.234801284106631,0.103808931145368
235,235,-2.5128064600494,-0.14992010363093,0.917383586475166,0.0167348348323937,-0.0713576664293925,-0.00473881233067957,-0.0190403634328356,0.426283313637053,-0.187755963953376
236,236,-2.51268526023813,-0.150585148820054,0.917391242214226,0.0249157637693535,-0.0771895760742524,-0.00619057073546527,-0.244722341650821,0.0743634920062251,-0.506635271239966
237,237,-2.51268204770354,-0.151308766643887,0.917406731953526,0.0301451817435034,-0.0770728547996361,-0.0074031145654591,-0.158617147282912,-0.432773662538016,-0.505377754674505
238,238,-2.51273808380676,-0.152072832704306,0.917430685425224,0.0322988176530505,-0.0738183510461558,-0.00806870560521099,-0.235770422858104,-0.595961487109054,-0.39890518327875
239,239,-2.5127945689966,-0.15285929635556,0.917463754654846,0.0286272794541018,-0.066004464270102,-0.00809395491891298,-0.0628127826288625,-0.549213015984053,-0.113577294926079
240,240,-2.51279264198704,-0.153650148163045,0.917506578867951,0.0230173892562689,-0.057730521834347,-0.00723178980081532,0.16649681347284,-0.144397301565829,0.242710704589632
241,241,-2.51271721776207,-0.154444989196825,0.917549483641406,0.0179164122257912,-0.0538835125937909,-0.00439443499922038,0.245406763806028,0.235332851694979,0.272048104799649
242,242,-2.51260738186,-0.15525593169693,0.917592067640153,0.0148551327895464,-0.0544182796705279,4.05003639892232e-05,0.180783593626926,0.384926559310203,0.38745721197744
243,243,-2.51248556121386,-0.156083767194773,0.917648847870855,0.0156254203134738,-0.0549170017719912,0.00523460856586399,0.00194502091884952,0.301858493404535,0.357779327135155
244,244,-2.51237426602195,-0.156929244931132,0.917734274205899,0.0179477484538817,-0.0551881758656681,0.010328375869053,0.140656091379606,0.210372124092959,0.359668850423952
245,245,-2.51229609429322,-0.157793044343691,0.917862709154528,0.0201517543891033,-0.0561375701049722,0.0145416633023548,0.216658077386385,-0.0715209886321164,0.318739773678714
246,246,-2.51230565789219,-0.158647862574138,0.918033308597203,0.0226489270025157,-0.060221003684332,0.0177071929260355,0.158882222534011,-0.1257438521836,0.197554146178813
247,247,-2.51238797715964,-0.159493253108103,0.918236501028665,0.0250149377831616,-0.0685723645005137,0.0203470290728566,0.0955483911375122,-0.0744358729649993,0.169358229384567
248,248,-2.51246127070106,-0.160370131094359,0.91847342451933,0.0269604536133862,-0.0786220756556012,0.0229059804615296,0.0258683775016431,0.0468540935077598,0.194144311434091
249,249,-2.51244368607871,-0.161319457850949,0.918745093251461,0.0302420680388261,-0.089196253709198,0.0258672845498711,-0.193016395709726,0.196904815877941,0.188219262347908
250,250,-2.51225330085349,-0.162382239972667,0.919052362475457,0.0341405458836008,-0.100352605775236,0.0296576010205829,-0.306085385592363,0.241958435186478,0.229817019137557
251,251,-2.51184312038289,-0.163583835542848,0.919404138278061,0.0382586033559678,-0.112988246039212,0.0347154154034904,-0.257206071555392,0.37295020555668,0.465881766580524
252,252,-2.51126770513733,-0.164896919727422,0.919799374255317,0.0428005751478529,-0.1263797168247,0.0409267053010369,-0.224101807315646,0.262461089789317,0.54400546351156
253,253,-2.51059741346465,-0.166283431222691,0.920223984040753,0.0465237228700899,-0.139405686862433,0.0471020974293513,-0.0703171671300877,0.137947893247965,0.719006133130187
254,254,-2.50990257030246,-0.167705265388225,0.920664068080285,0.0498692417086367,-0.15036069201303,0.0524209409745523,0.0919258328196478,-0.0647866162806797,0.718267690029247
255,255,-2.50925345517905,-0.169124283509549,0.921105941916755,0.0523775732673196,-0.1564045962408,0.0559637152675157,0.154617431934061,-0.187682384296282,0.592932274394444
256,256,-2.50863053162569,-0.170593591042407,0.921566390695425,0.0554725400545936,-0.156711483348725,0.0576167147102137,0.114630226655943,-0.153907551257829,0.369642759223622
257,257,-2.50798680948826,-0.172138368582661,0.922054363557671,0.0595639822435883,-0.153835141905479,0.0579610041541432,0.156789012524786,-0.0398776785525262,0.248540572663839
258,258,-2.5073513681515,-0.17367866286699,0.922544732244619,0.0641723092932997,-0.147767380905097,0.0574196153641623,0.176941855221627,0.0413014840552318,-0.0522415304654586
259,259,-2.50675330872835,-0.175134666013595,0.923012565858996,0.0661846118390171,-0.139983656120098,0.0560293534165727,0.392700261977222,0.0956379145341929,-0.0790763272439456
260,260,-2.50622176157991,-0.176426732402465,0.923433135218122,0.0668574629934584,-0.131441635982465,0.0542703041439171,0.360520119561951,0.170766879029781,-0.206265961948378
261,261,-2.50578497471648,-0.177504005875942,0.923783263075715,0.0639694392313571,-0.12110991584672,0.0514140884393358,0.351883294733483,0.233802844173444,-0.253505946698053
262,262,-2.50542340660077,-0.178419763898901,0.924079861752039,0.0587099710932059,-0.108968251209416,0.0472558613382274,0.169549805897434,0.387642172784245,-0.244180335152479
263,263,-2.50509459417455,-0.179250632613226,0.924358361898819,0.0524604157286622,-0.0961937121603993,0.0427957913612001,0.100497850704513,0.374052181382565,-0.369618296049699
264,264,-2.50475615681861,-0.180073147849875,0.924654039467147,0.046817405623014,-0.0844570944147002,0.038906049674836,-0.00409093868481038,0.341658455257034,-0.299091673537624
265,265,-2.50436580211686,-0.180963758221281,0.925002041497765,0.043712351296324,-0.0739108787785663,0.0366810788172566,-0.00938968366708207,0.201318658540114,-0.228473078869049
266,266,-2.50390733329146,-0.1819396911867,0.925421057906807,0.0441483392876268,-0.0644527117059375,0.0369733410906231,-0.0567792066874697,0.132548412594127,-0.0764068432852718
267,267,-2.50340912623711,-0.182950046490969,0.925887875858523,0.0467189654529654,-0.0558830874673355,0.0384517673101149,-0.00212083046832123,-0.0567999561521414,0.0130905999072788
268,268,-2.50289580036708,-0.183968982209678,0.926374658135431,0.051493264302972,-0.0480204457529573,0.040468821795783,0.0847837653658264,-0.00117260389333521,0.207607342296812
269,269,-2.50239189762721,-0.184970573331363,0.926853431966834,0.0557704999553065,-0.0400483974420449,0.0422181915115747,0.214350509025749,0.0832756884293143,0.228276582369182
270,270,-2.50192187551891,-0.185928814941928,0.927296069804704,0.0583732568406247,-0.0319811500369302,0.0431003027804678,0.235760537832593,0.134695056102633,0.211005966084844
271,271,-2.50147457679263,-0.186877671110175,0.927707196888087,0.0581056801848687,-0.0251025188564036,0.0432571204101829,0.252184057913246,0.229096515637657,0.171779790578226
272,272,-2.50103375563744,-0.187834382277811,0.928105602157518,0.056126194016813,-0.0198872713641875,0.0432424424498477,0.158217553890447,0.33956212447092,0.102015841817607
273,273,-2.50061621932693,-0.18874786608473,0.928484355127887,0.0529460556780203,-0.0149826066107345,0.0428707033270273,0.171934163306673,0.229022974283551,-0.0678126047305922
274,274,-2.50023878547526,-0.189567107415433,0.92883656188264,0.0493149509598156,-0.00953671200857282,0.0416610798592169,0.275483903678362,0.249560169970482,-0.193060460569505
275,275,-2.49991826769148,-0.190241151996138,0.929155337745277,0.0463105585909124,-0.00401193298275023,0.03957792863412,0.318754527158331,0.0803285607176101,-0.353046900242807
276,276,-2.49968058950782,-0.190731735581519,0.929439569680691,0.0435355447828757,0.000995326023025064,0.0362202664192317,0.272550635859976,-0.0291354902666123,-0.466600970323495
277,277,-2.49951463362303,-0.191072929045576,0.929694055108992,0.0407822147348925,0.00544131284074874,0.0316990817167339,0.245861268427107,-0.032905938074562,-0.564757735731347
278,278,-2.49938160255095,-0.191322322082744,0.929920660990842,0.0378480113876947,0.00942325552037816,0.0264519844857125,0.244508866614336,0.0814760338412801,-0.571376510028948
279,279,-2.49924265697312,-0.191537499059741,0.930121125930136,0.0357508052058043,0.0120831670206026,0.0209468413613423,0.234955147946132,0.174080616573687,-0.511938130335582
280,280,-2.49905892948759,-0.191776028090685,0.930297079285779,0.0355995435622927,0.0131184473212445,0.0158104424772567,0.208422186614491,0.259281505148009,-0.415925404594248
281,281,-2.4988297500703,-0.192043725753586,0.930446356943975,0.0387639047956326,0.0110974046779324,0.0109012145820996,0.11533533319613,0.372188425144479,-0.378455810520657
282,282,-2.49858098789437,-0.192302289539094,0.930567754483819,0.0443320491353544,0.00678323013890154,0.00600831053945944,0.0118494056544134,0.360368868241414,-0.389185411377415
283,283,-2.49831358694158,-0.192543039200791,0.930664274748952,0.0504138801277616,0.00161040229584809,0.00123075859585647,0.125970905330672,0.288612048783417,-0.338813662086676
284,284,-2.49802851301407,-0.192757237918069,0.930738919980724,0.0559368767239236,-0.00326650700975008,-0.00326479047224745,0.173798015703169,0.215644537213813,-0.352833584752622
285,285,-2.49772675142211,-0.192936107264273,0.930794689688871,0.0596334344467857,-0.00588800599504904,-0.00734051385893722,0.204718358094274,0.214784872984811,-0.283508848800304
286,286,-2.4973939538536,-0.193091556980652,0.930837034768855,0.0602220353071316,-0.00567985272169695,-0.0105522483578634,0.234588041619831,0.12841035069239,-0.299806329732065
287,287,-2.49702949952763,-0.193229341595471,0.930863896712606,0.0595002592102566,-0.00376373091517025,-0.0130878835908821,0.30683993864572,0.101820973604108,-0.29300652917666
288,288,-2.49665497751002,-0.193331462323923,0.930867003115312,0.0583531610003719,9.50106817887483e-05,-0.0152866947625117,0.28881949761361,0.0755454899986434,-0.366376177290568
289,289,-2.49629197164244,-0.193379960527707,0.930838068199855,0.0561284025716556,0.00484245146793211,-0.0175990007070515,0.331514001972778,0.0437893972907315,-0.389347865044795
290,290,-2.49596205632808,-0.193356904229224,0.930768787873749,0.05286253562138,0.0102542393230955,-0.0203804114760088,0.287658734027812,0.0277547835085428,-0.485744383349339
291,291,-2.49566300036797,-0.193263567012158,0.930664148879547,0.0485552179938634,0.0172464939901823,-0.0237048924249263,0.272443459083747,-0.03123088919765,-0.50436157181962
292,292,-2.49538042918984,-0.19311187621605,0.930529619512533,0.0425946345762304,0.0244372751756469,-0.027406897923272,0.343219259146654,-0.0402328311293702,-0.501992369108282
293,293,-2.49511769969319,-0.192899898395465,0.930357598856019,0.0366637890974378,0.0310564263657735,-0.031314607984022,0.246934234784967,-0.0360823425321592,-0.542287862934158
294,294,-2.49487818347191,-0.192625725281705,0.930140491047258,0.0309196793054535,0.0361000180170167,-0.0354437386383207,0.1612860277455,0.0898230742794233,-0.563164083299039
295,295,-2.49466526698523,-0.19228748744155,0.929870730985784,0.0258663644430364,0.0401654571299644,-0.0396362502917061,0.0770381230318445,0.130392335015954,-0.540993300581748
296,296,-2.49446691846831,-0.191884843348775,0.929546754446816,0.0223573104179583,0.0437011083876336,-0.0439502589124067,0.0735894382012413,0.151509434922967,-0.451515472270912
297,297,-2.49428090391913,-0.191419070180369,0.92917368853081,0.0196188421845362,0.047762553474952,-0.048248113600815,0.0719947938309353,0.110653131866481,-0.502982412984378
298,298,-2.49412530230045,-0.190890770818102,0.928754028943507,0.0166715422385788,0.0518466844987598,-0.0526477900876287,0.1188655356401,0.081822869802331,-0.467095204432847
299,299,-2.49401817155792,-0.190300561232147,0.928290224630429,0.0123276972451364,0.0556304090226789,-0.0572093383982278,0.111428165663709,0.178700039766826,-0.481458949127932
300,300,-2.4939775361113,-0.189649073912006,0.927784663276148,0.00656354754797408,0.060339386376883,-0.0618317035426411,0.138574303708853,0.255767423508928,-0.367054633809881
301,301,-2.49397545873584,-0.18898039854754,0.927251478472987,-0.000181953247877517,0.0663050614352094,-0.0661486433633119,0.177035958766881,0.282462230375339,-0.316345171799216
302,302,-2.49399989218937,-0.188294298153452,0.926689329268239,-0.00727685452355014,0.0734502994046116,-0.0700830840878354,0.120659507107432,0.299185545044447,-0.452835882289087
303,303,-2.49409253878965,-0.187524845591192,0.926077114536753,-0.0150370389680553,0.0820636982979121,-0.074155024010249,0.0616715085804016,0.32176974743152,-0.480701604567925
304,304,-2.49429492076475,-0.186605987840302,0.925393386123332,-0.0240330210569838,0.0920557861426416,-0.0789372607060387,0.0431317074102529,0.382361814670968,-0.481822017288555
305,305,-2.49464836086763,-0.185471517227069,0.924616304526219,-0.0342180366999888,0.103515849538205,-0.0847584380606852,0.0746973528185167,0.489706229785653,-0.465456291928973
306,306,-2.49524143370134,-0.184088708124421,0.923691713880922,-0.0470081433446131,0.118081746593286,-0.0943493020903421,0.171891355997122,0.395532830780054,-0.50551065403418
307,307,-2.49604571368198,-0.182501650416522,0.922633406975636,-0.0624733908961021,0.134262112501824,-0.107527450552957,0.307330953092791,0.447592033435544,-0.636408590972734
308,308,-2.49692708933602,-0.180759037095982,0.921521175662165,-0.0789697966641675,0.152315969072911,-0.120071890569975,0.599158448372951,-0.148780730775956,-0.822831895270379
309,309,-2.49775184873541,-0.17890930696485,0.920434927176159,-0.0922700720352187,0.165851753050647,-0.128060479951986,0.192280060648524,0.176808803496908,-0.696150804543305
310,310,-2.49838674081103,-0.17700071848534,0.919454802254976,-0.0975119900882146,0.172016029765153,-0.129096599143093,-0.446663370734418,0.752020612885441,-0.57517906680556
311,311,-2.49872174540141,-0.174808760110156,0.918527057091554,-0.0929216169797168,0.17534882117967,-0.116441426923616,-0.626999882928733,0.784333690284183,-0.502021775134851
312,312,-2.4988455616964,-0.17230069164294,0.917597914908364,-0.0798784638805365,0.176033042506935,-0.0954260602723271,-1.20448560758474,0.937404461538161,1.16959798603221
313,313,-2.49892355226025,-0.169812698976867,0.91674790228477,-0.0635868022904069,0.171445537584099,-0.0642215645870565,-2.75015691437051,0.976666136964528,1.20728188767118
314,314,-2.49912131844459,-0.167681319304375,0.916057762114324,-0.0306934360563348,0.160072262578653,-0.0388941118775821,-2.06308297435071,0.634931942192008,2.53424769475973
315,315,-2.49960478684993,-0.166243242751031,0.915608503840058,-0.0079415167083037,0.151841682263702,-0.0165371680594256,-1.30228757759182,-1.16857609751435,4.52691242232876
316,316,-2.50052841450673,-0.165752148241768,0.915493578331901,-0.000445384336807392,0.138115299273811,-0.00100767901729368,2.3357414767221,-0.634185275778471,4.14139134105952
317,317,-2.50178281964485,-0.165983358112419,0.91566047469333,-0.0102128877398638,0.106918099641339,0.0137811584677011,3.35508144495223,-0.311702786824512,2.75916370609795
318,318,-2.50313815400294,-0.166556228264011,0.915971007214234,-0.0186368880456974,0.0707108847024992,0.0266148365234948,1.80890131132476,-0.119823421637399,0.673318147907302
319,319,-2.50436365547722,-0.167090755721005,0.916285805217119,-0.0235466511273971,0.0329813031858249,0.0360413116150593,0.266097419746448,0.288666495269944,-0.855253314357915
320,320,-2.50522763971975,-0.167207566617252,0.916464262549881,-0.0294973989758801,0.0064116070346363,0.0388091619340022,-0.124053056731556,0.138655343802856,-0.702450020420297
321,321,-2.50569187837919,-0.166872623447942,0.916491705176835,-0.0339413496191099,-0.000508254678033813,0.0324915070041522,-0.82631706113712,0.264283708988894,-1.41125124785413
322,322,-2.50591068556678,-0.166339394880382,0.916461453457343,-0.0376627659126892,0.00802153247022886,0.0184071680363107,-1.14706711140479,0.467174281494348,-2.05553437754326
323,323,-2.50594083290969,-0.165659849129105,0.916394334865568,-0.0391815466719277,0.0239837106445696,0.00105108956276554,-1.15815230566841,0.613757559028729,-2.22044783401771
324,324,-2.50583904866348,-0.164885792966966,0.916311217455759,-0.039094534041273,0.0390203010210949,-0.0152368597773376,-0.848938790334431,0.698487072860439,-1.61961825395912
325,325,-2.50566195775079,-0.16406895529206,0.916232966905943,-0.0362092744599006,0.0470562810903696,-0.0253748608176278,-0.581209957879109,0.419225529003651,-0.977049207635947
326,326,-2.5053419874122,-0.163113207489443,0.916148909133349,-0.0296635470453431,0.0507714802332382,-0.0278122587424585,-0.18398208394009,0.478514500751492,-0.335449440919533
327,327,-2.50484161428645,-0.161983787471861,0.916045410440313,-0.0184761939992327,0.0564972208726194,-0.0257482188008334,0.483169783495663,0.432076514814398,0.421546824888005
328,328,-2.5042623159557,-0.160824583237131,0.915938777215002,-0.00509433870955482,0.0645385729512214,-0.0211092467324138,0.870220452158552,0.163691156387229,0.935743062135838
329,329,-2.50370533738134,-0.159779702171359,0.915845049324116,0.00920104808504498,0.071055247774931,-0.0155255833409332,0.289280099261555,-0.0807310274104321,0.604642190558189
330,330,-2.50327171034494,-0.158993462207039,0.915779974856423,0.0210111411367668,0.0749075588188605,-0.0109821118553057,-0.110361142952839,-0.0720694374832478,0.188970914317882
331,331,-2.50294891241088,-0.158560941337006,0.915748098365053,0.0277221352938559,0.0776191160882751,-0.00804923863607567,-0.0433710453855769,-0.0982410181558674,0.0632088831181257
332,332,-2.5026694640747,-0.158386144556956,0.915738799452442,0.0326391464624163,0.0743556802077856,-0.00544502595657423,-0.117667464812671,0.206678360129849,0.124771438607828
333,333,-2.5024518885529,-0.158326806891225,0.915744922439554,0.0351144734517628,0.0672841341654321,-0.00306683349718027,-0.0256085616870377,0.336155700672435,0.246190992639735
334,334,-2.50231466623289,-0.158240562679547,0.915759302465354,0.0352754501983502,0.0594582706004587,-0.000413256202231036,-0.0487288453042327,0.295217071303094,0.167803431797289
335,335,-2.50227621090575,-0.157984974131117,0.915774757928045,0.0317684984443961,0.0554143208505241,0.00242096829966141,-0.0549906636746308,0.106640224656196,0.343236658453072
336,336,-2.50237953878498,-0.1575524888026,0.915794684092768,0.0252575995300513,0.0551303037115985,0.00604487618365462,-0.210611253601249,0.0894793005125036,0.336736033220248
337,337,-2.5026123379481,-0.157038028985005,0.915823837386539,0.0156043221574247,0.0565078577444441,0.01036150520543,-0.220729564576889,0.104819468705549,0.305653974976922
338,338,-2.50291001218532,-0.156452845223655,0.915857080718291,0.00389681561739721,0.057768095956506,0.0144893567534953,0.000247087351235016,0.118568210062512,0.572654206812882
339,339,-2.50320796804098,-0.155808157213008,0.915889271607701,-0.00744812405791729,0.0571884006859026,0.0179903809027061,0.221385274302933,0.49453509740817,0.642212420405529
340,340,-2.5034416030474,-0.155115140758664,0.91591524922159,-0.0157607714344017,0.0589488935571191,0.0202059953077735,0.476677744202866,0.189497956635257,0.488457812289582
341,341,-2.50359797422069,-0.154362557231187,0.915916633127207,-0.0188426403350315,0.0620068480684294,0.0204665752548228,0.570980770983024,-0.362953485122247,0.300413580024058
342,342,-2.50372015378206,-0.153542887027836,0.915896867125956,-0.0166452467100587,0.0669797803020985,0.0195381505806116,0.242855358404344,-0.771548493147185,-0.158086719295478
343,343,-2.5038275210338,-0.152672879817618,0.915883505684229,-0.0122643780219561,0.0721753748929938,0.0182910349499555,-0.177353879972237,-0.874117880703873,-0.32596183569871
344,344,-2.50393942440336,-0.151769304561502,0.915904068121454,-0.0084276376464195,0.0783907290204565,0.0173051410521262,-0.250443625493714,-0.79021177081851,-0.236564538883106
345,345,-2.50407517070194,-0.150848963572615,0.915986039389386,-0.00750916819856037,0.0855130979851673,0.017455132060059,-0.277376829694128,-0.67680794964601,0.105893318981315
346,346,-2.50423773452238,-0.149905162567317,0.916125750358178,-0.00888751605417227,0.0931534837193372,0.019804104039965,-0.486767398802156,-0.542213335944291,0.238965852003207
347,347,-2.50441407625205,-0.148926750226242,0.916304751665824,-0.0111018642076676,0.100540709516195,0.0238677588044038,-0.652277102260844,-0.335657498295724,0.216092331003835
348,348,-2.50459947165525,-0.147923884899229,0.916528434686048,-0.0175454282461331,0.107388639576308,0.0277765657116021,-0.302572938006953,-0.234797459681668,0.495295139091786
349,349,-2.50478926170243,-0.146906713918812,0.916802328726663,-0.024885601386207,0.112980694298955,0.0308256297044398,-0.256735626246064,0.131689426685302,0.552151615758109
350,350,-2.5049788605029,-0.145885362876135,0.917132120987394,-0.0288183550958945,0.11507819117564,0.0324371175269193,-0.400328961999874,0.410571969413654,0.257158127676412
351,351,-2.50520716174989,-0.144855690550845,0.917549638102557,-0.030056559000516,0.114689044630417,0.0313022134876824,-0.249248911405812,0.691896197592441,0.0930069016078184
352,352,-2.50547711458577,-0.143811145078477,0.918051326929353,-0.0297888714198138,0.111085577486776,0.0282408015645693,-0.123754158859969,0.822737096491067,-0.101746420132257
353,353,-2.50573034135959,-0.14275804584152,0.918590018568297,-0.0289843877364994,0.10726422010192,0.0243893912572809,0.0804575149188729,0.643369069744281,-0.334746053678279
354,354,-2.50590856148578,-0.141702460578348,0.919118650801604,-0.0261352346451817,0.102333431729112,0.0210470827006666,0.116388813628568,0.462534520539892,-0.61302626326021
355,355,-2.50595360214236,-0.140650178473276,0.919590261391806,-0.022628464732771,0.0945699201586198,0.0191202960706758,0.159479708335616,0.222605822531207,-0.593626195124685
356,356,-2.50583984778247,-0.139553579266359,0.920000230287971,-0.0160593385349217,0.0834795601011412,0.0192052060501939,0.133864603031375,-0.049429883661923,-0.55923163915638
357,357,-2.50560622644262,-0.138408260778757,0.920380471445122,-0.00757704333555277,0.07027184003319,0.020375895937513,0.190611662269045,-0.286849193957739,-0.320824787622791
358,358,-2.50529154343512,-0.137284670699356,0.92073892920361,0.00147796754187553,0.0556455491838998,0.0221795442512715,0.269749985556582,-0.345744830226535,-0.0425002770671067
359,359,-2.50493468180707,-0.136253324927112,0.921083580740816,0.0120895094900644,0.0409584378066588,0.0242233701498155,0.243791877474845,-0.399953082682459,0.201497612821233
360,360,-2.50457458085653,-0.135384804231093,0.921422457514502,0.0228475712181008,0.0291719571998536,0.0261981689912452,0.15320441002243,-0.472764573376382,0.225425956585608
361,361,-2.50418076253953,-0.134687949590076,0.921756965556448,0.0330173165535549,0.0212846949017816,0.0284328326773637,0.0678312204579906,-0.332514240043803,0.273122994475986
362,362,-2.50372764206243,-0.134115136000597,0.922082910066381,0.0436127980388184,0.0172416998908965,0.0314464256313107,-0.0309668605736593,-0.485843442336254,0.175935809303906
363,363,-2.50326148778208,-0.133652384191551,0.922399588701014,0.0541812927291621,0.0157422052033219,0.0343981279327347,-0.184097442867552,-0.378438967407575,-0.0753188262028239
364,364,-2.50282852091601,-0.133285861688103,0.92270567779057,0.0634961511711336,0.0144742361137139,0.0367121232881232,-0.35846859876464,-0.333861700238696,-0.0841056444242671
365,365,-2.50247490522136,-0.133001911264887,0.922999202071283,0.0690552241287585,0.0117135922958236,0.037813705223101,-0.396569028780933,-0.127510586425239,0.00642387285700197
366,366,-2.50220495552104,-0.132829605655716,0.923287463233627,0.0696225249788169,0.0105129580894278,0.0375131232770484,-0.167314243456805,-0.259780932635911,-0.0225034988665212
367,367,-2.50198820891184,-0.132777431275607,0.923571875227427,0.0664929253317511,0.0114391022699505,0.0362544800140309,-0.217051595290426,-0.175446610962135,0.00337297845958769
368,368,-2.50181836786761,-0.13280162953229,0.92384060216121,0.060661037762096,0.0119986426883669,0.0340987627963832,-0.32280268386746,0.0325172203202902,-0.101064858193648
369,369,-2.50168881140204,-0.132859268995057,0.924081069957968,0.0517304462237344,0.0113271158526744,0.0308732630712462,-0.092479100455199,0.0190603368978434,-0.039441735232322
370,370,-2.50159261043645,-0.132908120240057,0.924280089940139,0.0436015823577146,0.0104830643630758,0.02696779392362,-0.221971926642393,0.00358051240024371,-0.147878981887052
371,371,-2.50152823074001,-0.13296033750265,0.924444105732771,0.0362332816462655,0.00774152994907462,0.0220725454843804,-0.118985090074521,0.12854539805479,-0.250940211617865
372,372,-2.50149970802742,-0.133045134352254,0.924580766471215,0.0285016614056161,0.00484316462888208,0.0161645148143272,-0.0213265655529057,-0.129617564581072,-0.335301796671236
373,373,-2.50150832566172,-0.133146172395854,0.924678180612257,0.0223325120075241,0.00242893550330968,0.00938980646050728,-0.026818693449174,-0.361246929941286,-0.482648308502313
374,374,-2.50155548561413,-0.133247020495304,0.924724318186567,0.0175558608844142,-0.000455162470469837,0.00209680140804562,-0.0508209806336581,-0.404924441015429,-0.694151565465664
375,375,-2.50164272663845,-0.133331183527808,0.924707200862967,0.0125434202914581,-0.00227909424738208,-0.00563055630283828,-0.0454764019590934,-0.3987789007011,-0.743864969167542
376,376,-2.50177262164234,-0.133351473610538,0.924637870537821,0.00637362853714575,-0.00213806537912621,-0.0139084364435589,-0.0137225663568092,-0.310176987886322,-0.766043749089274
377,377,-2.50194400970992,-0.133319136355512,0.924524328029659,-0.00143480705907245,0.000287969286947043,-0.0227807435121091,0.0261804706717171,-0.207947064459598,-0.763706131550342
378,378,-2.50215295837797,-0.133305216121805,0.924350359759547,-0.00831900315817069,0.0011727554025251,-0.0317251942924676,-0.0266493167958456,-0.104740409588608,-0.833258513655555
379,379,-2.50239557206284,-0.133380648057486,0.924099783308402,-0.0142968195130204,-0.00172085249573918,-0.0406077692014275,-0.00372939473115768,-0.104300773570907,-0.799411388360647
380,380,-2.50266797101286,-0.13361627026858,0.923756265972898,-0.0185824338651525,-0.00981067911453042,-0.0491296972824308,-0.0122868026864503,-0.0411455263160167,-0.797952026663275
381,381,-2.50297751021063,-0.133970174774218,0.923307130936946,-0.0222864119157684,-0.0228459121305827,-0.0581718710620773,0.108599628362855,0.0346795796763176,-0.788848313583088
382,382,-2.50332693788928,-0.134394743741308,0.922765024122707,-0.0258916013246688,-0.0376910561355123,-0.0677825209740113,0.0583935833827948,0.121003536361688,-0.821366018551632
383,383,-2.50370539734421,-0.134952070112811,0.922150933862203,-0.0300501554992069,-0.0538224986082566,-0.0770234755658201,-0.159807672658349,0.223312515263029,-0.868137642545972
384,384,-2.5041019054153,-0.13570408852221,0.921485049706163,-0.033331609169947,-0.0696797852204318,-0.0848636324707562,-0.258323207595867,0.162405002058818,-0.721824741530899
385,385,-2.50450528401693,-0.136712624988387,0.920786665835125,-0.0354884141002644,-0.0871742870480611,-0.0903318624637751,-0.316917099406418,0.0657436991322476,-0.765004266390029
386,386,-2.50493737692095,-0.13811869516284,0.9199775349349,-0.0359687520035128,-0.109484196351105,-0.0951727310329713,-0.252751808965516,-0.13396629867141,-0.63154884228859
387,387,-2.50540532391918,-0.139879545149263,0.919045845949224,-0.0342319722207721,-0.136623243076361,-0.100134031448423,-0.283534767259147,-0.206105049950115,-0.508349145779355
388,388,-2.50587570486118,-0.141782133540719,0.918108687906454,-0.0284121163113797,-0.162699666648414,-0.103257464554971,-0.543101856890043,-0.352625520564603,-0.201175956485933
389,389,-2.50631519884117,-0.143614573792217,0.91728141286944,-0.0244635704235974,-0.178115257275288,-0.0990769359557885,-0.711444947829792,-1.33526557839345,-0.191957029675478
390,390,-2.50669075112272,-0.145166067026548,0.916677926256801,-0.0295160838600539,-0.176661083310802,-0.0883605584359553,-1.43399122343386,-2.3271247179916,1.29184096222212
391,391,-2.5069747090162,-0.146482962173902,0.916340689969505,-0.04269168633535,-0.157498646608073,-0.0628521750653212,-0.836722890674117,-2.68019748529937,2.2964623839318
392,392,-2.50718949426901,-0.147706507187927,0.916191790455198,-0.0481754294754103,-0.137303215777866,-0.029664968031536,0.0962547401466972,-0.29182954510092,4.1034411942598
393,393,-2.50737747712037,-0.148769230536257,0.916164368098198,-0.0486548694793324,-0.110422523934833,0.00755602727841433,1.85366757410535,1.75135877691989,4.40837429097836
394,394,-2.50758062256044,-0.149604083436842,0.916191686598943,-0.043559224493893,-0.0701899481492185,0.0393076049906132,2.88758615578035,2.10887453034981,3.01787868186695
395,395,-2.50784034495539,-0.150144326895958,0.916206858442012,-0.0373855256114797,-0.0402036175107633,0.0590283880562103,1.16086289670996,1.2683176692001,1.42350539537196
396,396,-2.50820760131167,-0.150231774044357,0.916225670495732,-0.0372352319841352,-0.027335604869748,0.06389046830977,-0.575556024046106,-0.0646807915814471,-0.497955505381595
397,397,-2.5086545933406,-0.149911521414305,0.916292385390528,-0.0410244570068213,-0.0258444702700777,0.0576070212036055,-0.992779320273308,-0.806971809861772,-1.41356562829774
398,398,-2.50910440544493,-0.149421616283329,0.916382838006094,-0.0470037944237471,-0.0282924310665701,0.0442621555959502,-0.518783736754793,-0.994804307808913,-1.08366399173337
399,399,-2.50948035660612,-0.149000452154997,0.916472903920686,-0.0503842460393522,-0.020736142925668,0.0288159950584622,0.313707516437915,-1.31800728802273,-0.472088301590121
400,400,-2.50970598587705,-0.148886938872366,0.916538508426972,-0.0463125718849225,-0.00918584761052369,0.0170292662775386,0.0697260176843744,-0.76247109144065,-0.37782630984204
401,401,-2.50973868839872,-0.149156974683291,0.916571272264793,-0.0342344150336483,-0.0109254737975136,0.00905145382973991,-0.548328237571196,0.24913905268607,-0.637415861248844
402,402,-2.50962945897515,-0.14965134478214,0.916587630690017,-0.0172705243286093,-0.0256960906222601,0.00104777995366652,-0.452784204461189,0.576144064120708,-0.937713068769734
403,403,-2.50944232890128,-0.150256324168689,0.916600614660738,0.0052027726996668,-0.0413357981294715,-0.00639883621893004,-0.155340310571058,0.585927332119633,-1.04107572286504
404,404,-2.50924145972102,-0.150858188953565,0.91662277169675,0.0232900413948301,-0.0479765240418876,-0.0124603043435498,-0.131121414476717,0.315555468746599,-0.800167082516454
405,405,-2.50909118924963,-0.151343320298592,0.916666162130999,0.0340823150140317,-0.0505980779798461,-0.0159536030293303,-0.145724538713079,0.082055185534282,-0.780236731737085
406,406,-2.50899841027689,-0.151691365150521,0.916733824094461,0.0389743408266331,-0.0498602577626281,-0.0165445486146495,-0.208605664277643,-0.212239404534141,-0.628505965422912
407,407,-2.50892040621764,-0.151977911922751,0.916817359925535,0.0400660522672937,-0.0425390420338273,-0.0148722217204684,-0.25747133078083,-0.336704413071963,-0.36634298048233
408,408,-2.50884713018113,-0.152233493703993,0.916911514385601,0.0345722864174984,-0.0286583008265333,-0.0120117713909818,0.0550269149079467,-0.409364148896083,0.147518585274533
409,409,-2.50876839348245,-0.152488741534844,0.917011068381357,0.0264637852892899,-0.0183655751178926,-0.00862062141723261,0.271064379429735,-0.135160421818844,0.37250907609091
410,410,-2.50867387832057,-0.152774332647347,0.917110797618137,0.0198272854661258,-0.0156128575440737,-0.00539706402432374,0.379907207954372,0.125958823427074,0.433226114158262
411,411,-2.5085839699912,-0.153030364337031,0.917203592102122,0.0156061479129349,-0.0176981910066703,-0.00222070345764544,0.266460677080879,0.136486196153849,0.417636396492638
412,412,-2.50850540210697,-0.153236530572756,0.917292914882398,0.0168498118057886,-0.0233359511792249,0.00172440970620345,-0.196719888448615,0.129310280706224,0.228969695432038
413,413,-2.50840733910363,-0.153482847403113,0.91738937851761,0.0210364738786307,-0.0303801650338723,0.00607773413409089,-0.353919653069037,0.0500621314154007,0.158753200854503
414,414,-2.50825896828296,-0.153859279483703,0.917503563751292,0.0248515067868727,-0.0371139620075713,0.0104986348660726,-0.0943457637862658,-0.0324354018137705,0.250737318520637
415,415,-2.5080294817649,-0.154455760146868,0.917645989196212,0.0279429813026656,-0.0465213616452183,0.0149174983568784,0.0797442925417079,-0.0982882748140665,0.383959993217652
416,416,-2.50771580775535,-0.155328109898357,0.917811325406823,0.0318588163831597,-0.0575750560636898,0.0196732078900479,0.0916971736010118,-0.234545527942876,0.468535853870142
417,417,-2.50733833348101,-0.156416247189046,0.917992405213272,0.0375794832246132,-0.0725050403764771,0.024782846440793,0.0217156139371798,0.00583861508475554,0.532687518986112
418,418,-2.50690144753028,-0.157636262985276,0.918196875784658,0.0444482029211529,-0.0904399985945176,0.0300118366586364,0.0734749987388543,0.1817924990128,0.641896281075973
419,419,-2.50640959357604,-0.158904302153356,0.918432324683832,0.0524698662183311,-0.108124820458656,0.0350677948432124,-0.0625657617088879,0.158935882354503,0.624086955898106
420,420,-2.50586728058437,-0.160136563467984,0.918706283995514,0.0597013307470708,-0.118491099053545,0.0397116637358349,-0.137891602394912,0.10358399726373,0.460096475437847
421,421,-2.5052450139463,-0.161344491608605,0.91902664096231,0.0664074174181449,-0.126605842098342,0.0439315997289554,-0.107555416469991,0.160730143156284,0.469579626022361
422,422,-2.50453974182544,-0.16258394267213,0.919387859982087,0.0719299446209745,-0.134672349221486,0.0476811484085785,0.0372283236597443,0.223272177188156,0.695681213603248
423,423,-2.50379567472512,-0.163837751037054,0.919777436842873,0.0757483617249592,-0.138284815957519,0.0511256790622725,-0.123561926483731,-0.0110525247650287,0.517070309798893
424,424,-2.5030569998213,-0.165088715665026,0.920183065620088,0.078419956042243,-0.140177775276183,0.0538797525095934,-0.29283286453855,0.0489192951031171,0.361291838484113
425,425,-2.50236788110885,-0.166319592438411,0.920592664861867,0.0792733353432256,-0.140277503920311,0.055528798763758,-0.246834632920986,0.0593459153771727,0.279543891262703
426,426,-2.50170400358817,-0.167558220043947,0.921004001585721,0.0778472252715097,-0.138446497492786,0.0559700606903504,-0.233800413319833,-0.0310253146129052,0.18172256199168
427,427,-2.50103578715212,-0.168815873838449,0.921424991753287,0.073309914312778,-0.134979259426459,0.0552915058349354,-0.0483655136340207,-0.0895719293063933,0.193893476588315
428,428,-2.50039955422654,-0.170050484402246,0.921859138164156,0.0672617012149627,-0.129408806462549,0.0539239674647524,0.136910752463265,-0.186701753528972,0.00125867543387913
429,429,-2.49983171871572,-0.17122007128034,0.922310187529287,0.0604235574845967,-0.122345966069235,0.052112180939926,0.282732398083954,-0.291055322231881,-0.0588074603068328
430,430,-2.4993687854126,-0.172282758610237,0.922782118576739,0.0538322656776373,-0.113954306873353,0.0501732642303894,0.360728455521431,-0.306662033157542,-0.129472600265448
431,431,-2.49904813324484,-0.173217649661505,0.92329487019848,0.0478780677716437,-0.102497041027278,0.0479387929588602,0.377042652423273,-0.3447729430759,-0.266108674455256
432,432,-2.49884552054465,-0.174052582877543,0.923846337027805,0.0411122390392789,-0.0872478411152477,0.0451258855007769,0.393194502080935,-0.285276202132979,-0.354127689439881
433,433,-2.49870512176244,-0.174818927510256,0.924407506088008,0.0347413551698984,-0.0708094869974445,0.0423164233270977,0.281929174351624,-0.188514205247489,-0.363518139317532
434,434,-2.49857114353045,-0.175548127254156,0.924949265096866,0.029358720081171,-0.0555561643420587,0.0397997974628967,0.275667454640544,0.18308490568479,-0.296986249524455
435,435,-2.49838781472983,-0.176271705208921,0.925442433770179,0.0250836577749517,-0.0427905917291678,0.037858455133503,0.334284865683379,0.314119054156926,-0.21666765020479
436,436,-2.49815684910354,-0.176988990734298,0.925882200147105,0.024720905206535,-0.0321893662902837,0.0366232211547903,0.2822264206921,0.41789844194537,-0.213409830553123
437,437,-2.49791562732389,-0.177679018265195,0.926288490980819,0.0271645638957198,-0.0213507657098376,0.0357194497650587,0.339455879395499,0.268374077455383,-0.125018715093642
438,438,-2.4976618522327,-0.178343041176664,0.926669113012346,0.0318986477923964,-0.0117233537939054,0.0351821798362181,0.183413155828443,0.261796175648048,-0.146804300379939
439,439,-2.4973931582623,-0.17898245969185,0.927031708884366,0.0367140471362743,-0.0040260081472092,0.0347329092869406,0.139475298362681,0.343575236749819,-0.233054531520458
440,440,-2.49710712850242,-0.17959880501899,0.927383753451434,0.038978292676491,0.00157419369395779,0.0340688425524724,0.348365952156095,0.38138360872828,-0.0232489971996863
441,441,-2.49679273645568,-0.180215654860318,0.927729582079347,0.0396507469889943,0.00296500722660744,0.0335723575906395,0.373152136332814,0.467556513760673,0.0017921172710301
442,442,-2.49645173647105,-0.180832315040733,0.928064605934787,0.0385785201065779,0.00244931785392453,0.0335940910940797,0.47310493418984,0.274190721882081,-0.00763649230214308
443,443,-2.49610081004249,-0.18141401088806,0.928382610307067,0.0369883109567643,-0.00027049006810864,0.0333655973421282,0.507756998309893,0.320140010674567,0.0160917774575912
444,444,-2.49575652141977,-0.181925996595701,0.928677066543244,0.0360444507841438,-0.00263489028598075,0.0324394846611457,0.558213096287779,0.285938722990862,-0.0749581072979303
445,445,-2.49543531658486,-0.18233352293147,0.928941125392931,0.0351154991486222,-0.00240939848234496,0.0304347461473543,0.598187114303419,0.203333842550911,-0.204532728737384
446,446,-2.49514494624107,-0.182616892495921,0.929180851565697,0.0353062700545141,0.000653574887048571,0.0271506644254921,0.557384282544056,0.044992291286116,-0.432512541730603
447,447,-2.49487443923598,-0.182799487964853,0.929400597103645,0.0372129743824193,0.00420050418865606,0.0227323646758638,0.429195380019232,0.0978856827032284,-0.440286955939842
448,448,-2.49461207372701,-0.182910994341362,0.929590694623812,0.0399338710646706,0.00826092173077192,0.0176701950553865,0.378837943312097,0.152876998078792,-0.468734589780014
449,449,-2.49434607814727,-0.182980949670609,0.929741419311553,0.0419924548437362,0.0124846909507927,0.0123533128809574,0.30576966612006,0.222276759361675,-0.494961637151457
450,450,-2.49406462023003,-0.183038808794576,0.929842997238508,0.042840360393974,0.0152467713415795,0.00705173717206792,0.257097407580582,0.306584267331148,-0.453034020170393
451,451,-2.49375682333472,-0.183097659878502,0.929894955863392,0.0434460212435843,0.0161928396913104,0.00186771903804177,0.227925851157155,0.337672938213646,-0.434436912640277
452,452,-2.49343053709303,-0.183137598766246,0.929903591687744,0.0439195715931692,0.0156663910576753,-0.00355184180683149,0.216878116852439,0.337479194186783,-0.334061466052337
453,453,-2.49310198400886,-0.18313856386941,0.929869278934892,0.0443738853337406,0.0150975486491007,-0.00899825615115712,0.12312836644589,0.286507378606605,-0.412333312803012
454,454,-2.49278737608531,-0.183080509064639,0.929792403845025,0.0436990861994304,0.0158260645281382,-0.0143978045877297,0.117247985390486,0.260936026250609,-0.495119314988549
455,455,-2.4925028975164,-0.182943423084954,0.929673352877212,0.0415992787385782,0.0178196570769415,-0.019674124600475,0.150383681580167,0.217071221365688,-0.535216141565133
456,456,-2.49223865013454,-0.18271904818997,0.929513687738954,0.0382745729643174,0.0217372431189251,-0.0249168286002564,0.146149640299249,0.151915564221979,-0.55748417101655
457,457,-2.49198376090148,-0.182420639527277,0.929313083362016,0.0330822653987454,0.0274972310446922,-0.0302771268845099,0.246825079311671,0.0160276049985139,-0.579403275510993
458,458,-2.49175290659452,-0.182060521135462,0.929069081541465,0.0271079253316302,0.0335007244996793,-0.0355416860810851,0.346792485347565,-0.0342932183965541,-0.627314954592879
459,459,-2.49156076153256,-0.18165104147808,0.928779209948194,0.0209595086988745,0.0391142454255485,-0.0406352851757504,0.424723243598494,-0.00516949184248814,-0.550633612879853
460,460,-2.49142201410161,-0.181204541177884,0.928440991234931,0.0162649116079674,0.0449368203342778,-0.0452515050422774,0.42230618662095,-0.0046494461230319,-0.523791683536892
461,461,-2.49133345933816,-0.180722482282382,0.928058655736626,0.0130886675132119,0.0510906407003874,-0.0489102284107706,0.346645304664474,-0.0200063062709331,-0.504957108625071
462,462,-2.49128518842051,-0.180196708183485,0.927633881856751,0.0102930520244147,0.0569899576143277,-0.0518165048044948,0.37528201673102,0.0297095709551322,-0.384465567635248
463,463,-2.49128186653499,-0.179625066931674,0.927160363320904,0.00753932776183544,0.0619057494094084,-0.0547139789419438,0.367247759766572,0.106776559659656,-0.280152060390392
464,464,-2.49132816779186,-0.179005356447229,0.926631759573072,0.00351019609065791,0.0667654245476187,-0.0583753378107895,0.343969640589314,0.131752131591419,-0.274400971035385
465,465,-2.49142877226712,-0.178335317721767,0.926041680861956,-0.00229601534843405,0.07199191965803,-0.0633753419231545,0.326186516098507,0.14430574445288,-0.3518617868834
466,466,-2.49157891297498,-0.177684909962012,0.925389176305105,-0.0113698929621705,0.0766381824362923,-0.0709008540424434,0.338393984172302,0.172394692879215,-0.378188125667379
467,467,-2.49177550006317,-0.177055693756133,0.924678780878407,-0.0228805758827646,0.0813221573544323,-0.0803640998227626,0.248423445304584,0.181075098100061,-0.409006463035462
468,468,-2.49202557396246,-0.176342578749653,0.923911944187127,-0.0348710540810639,0.0848844793927453,-0.0902436210791932,0.350915623169006,0.25395678342455,-0.605434513975912
469,469,-2.49233592273117,-0.175440202483818,0.923089584336699,-0.0438656277423982,0.0883593951548875,-0.0989702821630022,0.305354872348396,0.137985555061465,-0.884276470661933
470,470,-2.49271310202331,-0.174242906015624,0.922212120775687,-0.0485508965062792,0.0935202409215383,-0.10519575280903,0.225481651953804,0.369151244176636,-1.09652280383923
471,471,-2.49322108623259,-0.172569386329667,0.921181887962514,-0.0507223341035736,0.108756213344537,-0.110368266824911,0.398317194252796,-0.031655375377249,-1.05448799767412
472,472,-2.49385483949802,-0.17048893468342,0.919997811613249,-0.0505685604500485,0.13202861853957,-0.116243503792439,-0.0891043105701504,-0.140282775348887,-0.614733642480335
473,473,-2.49451748253445,-0.168272115468563,0.918804830425607,-0.0484049607204943,0.153829738796322,-0.117921649372556,-0.423952259821691,0.260489482717936,-0.347545942430004
474,474,-2.49511238159035,-0.166190418030868,0.917747765105962,-0.0442683318484329,0.16742393848257,-0.114698646633747,-1.88523508090469,0.779602762793411,1.35712240426504
475,475,-2.49554325051538,-0.164516202330286,0.916971635138934,-0.0360463223145274,0.163684858115397,-0.101414653191404,-2.60666332928433,0.953654283007679,0.86555245332741
476,476,-2.49573192075246,-0.163286199811926,0.916541875637375,-0.0188640915633842,0.136887197973883,-0.0812805336728613,-2.12515226156908,0.740063975182551,2.53356968953408
477,477,-2.49574297657053,-0.162319600177094,0.916362711084809,-0.00256088148153767,0.119515395170549,-0.0489045756020223,-0.496179994539394,-1.31928213345573,3.6744565193388
478,478,-2.49569473335454,-0.161562802395802,0.916337761085081,0.00600747985933359,0.0826633208528161,-0.0164117640331255,2.13599624714192,-0.571474585930788,3.76772292760722
479,479,-2.49570548146702,-0.160962059548263,0.91636978259592,-0.00382044399844969,0.0432615882464823,0.011332652817593,2.86255667287561,-0.316053230188548,2.87518089925057
480,480,-2.49589338037164,-0.160463520299064,0.916360298773646,-0.00769197652552526,0.0209682682894042,0.0286864865173357,1.02946203849326,-0.518325534441501,0.243612434422751
481,481,-2.49639222664991,-0.160170603649202,0.916321493211642,-0.00740370494858716,0.00457225609925021,0.0311633253217136,-0.172028315066777,0.180322057771079,-0.878784977185114
482,482,-2.4971237580326,-0.160119336875647,0.916319229973372,-0.0125496386564864,-0.0056254487793054,0.0228210078463512,-0.639876518112211,0.232954273578194,-0.757165350511733
483,483,-2.49788772136762,-0.160154813405274,0.916334503599197,-0.0176675824568063,-0.00420256170077164,0.00996833201699847,-1.13417118570374,0.0757308059765867,-1.19692025502592
484,484,-2.4984836749787,-0.160122182925406,0.916348076381487,-0.0213981861316329,0.00603171399415469,-0.00238095470943477,-1.46767306532663,0.000739257115989762,-1.48390438867596
485,485,-2.49871109325863,-0.159866581080504,0.916340570132353,-0.024566577515883,0.0117237466694562,-0.00989266999325929,-1.16911067130283,0.518235859174207,-0.966362600092179
486,486,-2.49845127061497,-0.159317349106588,0.916309230008428,-0.0264165005263074,0.0155280547387986,-0.0118871609280036,-0.553769399661741,0.623175501172919,-0.54668371140351
487,487,-2.49783803107372,-0.158577590771061,0.916266910372778,-0.0251998270440132,0.021480535455667,-0.0113723810579147,-0.354098125072936,0.506104823181131,-0.233481729230007
488,488,-2.49704957565953,-0.157753044789362,0.916217647093373,-0.0218130682738366,0.0326919589022776,-0.00892499765304987,-0.0168473814877679,0.37034887935091,0.0804926100173362
489,489,-2.49626389309441,-0.156949692318835,0.916165395959568,-0.0171287687618627,0.0444952273929878,-0.00600738480238967,0.628677365072422,0.344690413438786,0.685366217635655
490,490,-2.49565872490554,-0.156273841533292,0.916113955625226,-0.0129953763247674,0.0499049313217874,-0.00408361858196004,1.0516747550222,0.412716873525582,1.30536386151349
491,491,-2.49522715930754,-0.155764086528341,0.916060449366837,-0.00567452521361571,0.0513929343983027,-0.00209661823185221,0.528024050615166,0.195746415633568,0.909459570373673
492,492,-2.49485061586741,-0.155349719117039,0.916002381367818,0.00386285459915973,0.0521672854670613,0.000677813788835732,-0.0852689868469705,0.0357575139389358,0.221167635120133
493,493,-2.49453921606722,-0.154973291969951,0.915943959388084,0.0135929109926141,0.0516249222043324,0.00368364643474791,-0.41941261236891,0.269511586145291,-0.104358468646587
494,494,-2.49430306177011,-0.154577319588384,0.915889336447317,0.0215738003378105,0.0489198524252436,0.006334151972307,-0.338535293506789,0.494639829210453,0.131250336781724
495,495,-2.4941522125728,-0.154104256465661,0.915842622134154,0.0280821466248753,0.0466097694465534,0.00864662733721699,-0.257661421985089,0.517011492624663,0.262204230447428
496,496,-2.49411198934471,-0.15353481672901,0.915801968315732,0.0284396218669316,0.0483650546840071,0.0107397396248238,-0.00262960470875045,0.337564558833684,0.336283445181427
497,497,-2.49417552568779,-0.152907409391479,0.915764607101109,0.0229009349759803,0.0543880995935893,0.0127703243111684,0.152677992632538,0.103519586122716,0.418053766497286
498,498,-2.49430463999376,-0.152250946229344,0.915733252627927,0.0146477912908433,0.0619623053467532,0.0146782904271675,0.0797296052830442,0.11903360258308,0.402275416158109
499,499,-2.49446129045409,-0.151594321645003,0.915710586936701,0.00633975124182875,0.0686047326854819,0.0162493164413011,0.0327135815630427,0.112559038531249,0.381121410160313
500,500,-2.49460757697605,-0.150966425887994,0.915699247601943,1.3797839951365e-05,0.0738139474257795,0.0175540164479564,0.0852607256525996,0.0245425145429953,0.241902250958233
501,501,-2.49475155705198,-0.150394690987628,0.915693950856986,-0.00363190020981663,0.0760379699614034,0.0185315957026248,0.180565525719209,-0.122549187485498,0.147364489248295
502,502,-2.49491861575386,-0.149859767645824,0.915692899601245,-0.00646252308355871,0.0785984867601617,0.0191880387622276,0.273858921525114,-0.270457578270958,0.010143121962154
503,503,-2.49509687937213,-0.149320359494141,0.915703924092839,-0.00808118042080712,0.082189824297093,0.0195574662684334,0.117486564970514,-0.280017635655761,0.0164381383447924
504,504,-2.4952744210052,-0.148735175656899,0.915734830188968,-0.00978020190768695,0.0876302616886427,0.0195568904160754,-0.0448458054725014,-0.458903979370309,0.207394933278601
505,505,-2.4954392495342,-0.148062934073398,0.915793380235135,-0.011581028311546,0.0955915014042753,0.0195103141707925,-0.257523798727279,-0.367803893672086,0.18447005663682
506,506,-2.49557141948396,-0.147296318266894,0.915873535283412,-0.0152241647677028,0.10458871268368,0.0191823407287543,-0.396138372931818,-0.399497089204366,0.0652127375968117
507,507,-2.49567882118064,-0.146462732272615,0.915969905317294,-0.0208328066923541,0.11328421111273,0.018284847447398,-0.362212338447795,-0.278937757609386,-0.0189500806895318
508,508,-2.49579111122742,-0.1455730080882,0.916091232808449,-0.0257131329130537,0.118474909379606,0.0173005233034288,-0.604491688371073,0.00918125717071719,-0.116969223816764
509,509,-2.49593789500396,-0.144638013029107,0.916246357085369,-0.0281825750935585,0.120820088309006,0.0162780313081857,-0.672821005026633,0.315601580284602,-0.0792237401743952
510,510,-2.49614874025691,-0.143668644939789,0.916444283490771,-0.0283590624381239,0.119336040797415,0.0153522717974424,-0.644337727650976,0.592488763935184,-0.139948537536566
511,511,-2.4964795332749,-0.142648126471069,0.916686154429454,-0.0276577609741831,0.117974948079511,0.0144743170305452,-0.620417205822648,0.681721059245163,-0.173403274002509
512,512,-2.49691015147226,-0.141569192244492,0.916966164634815,-0.0254745776845131,0.115130105681437,0.0135302146771395,-0.596817918123517,0.581041316776202,-0.214278068943731
513,513,-2.49735628006687,-0.140456976636544,0.91728313872893,-0.0229730405025134,0.109470071762712,0.0126852881648898,-0.317133420840846,0.597033223968867,-0.247049891811802
514,514,-2.4977337900007,-0.139336537103504,0.91763588243789,-0.0209804392359308,0.102198506975783,0.0121629232975974,-0.163360764751076,0.411378040629201,-0.146507315009385
515,515,-2.49795875098278,-0.138232845970492,0.918023151090616,-0.0182990833274099,0.0950269156812796,0.0124437681275097,-0.20570493076343,0.0427490493194273,-0.341303911134727
516,516,-2.49800071840025,-0.137112925459164,0.918474350235845,-0.0153864302925729,0.0852514118464062,0.0133357567006988,-0.298967242029337,-0.0552402936347487,-0.695014654336293
517,517,-2.49791573083878,-0.135959923115102,0.918990778144246,-0.010759744798159,0.0703103646946043,0.0146297301331788,-0.20358262852545,-0.304955823632827,-0.62859028953944
518,518,-2.49774979117339,-0.134822904563384,0.919528983996344,-0.00576849368375672,0.0523986915257512,0.0163505180221183,0.0488512976040256,-0.456978552839402,-0.47809178277305
519,519,-2.49754894759776,-0.133750878166719,0.920045460157244,-0.00210146813796199,0.0355807370255585,0.0181473396337654,0.320299568786182,-0.542582689461775,-0.0163001436261361
520,520,-2.4973593512076,-0.132792743780226,0.920496698851182,-0.000618418617628989,0.0234349404767299,0.0198139511968247,0.455216498986653,-0.708024442385741,0.561525208371431
521,521,-2.49717013443466,-0.1319422207327,0.920871590101773,0.00345942888357943,0.0188116211706151,0.0221202492809072,0.249143079789424,-0.498715163061936,0.400228055840041
522,522,-2.49695112088552,-0.131165999265843,0.921200015523317,0.00791943138464476,0.0162826476374559,0.0251879969081726,-0.00652437143695194,-0.494005842973382,0.296228141438151
523,523,-2.49671958650828,-0.130472498540649,0.921499831173424,0.0119812381785425,0.0156937398957587,0.0284627267778934,-0.302584620615557,-0.527722671622149,0.120912103854966
524,524,-2.49649264986811,-0.129870404923163,0.921788544800413,0.0153173007469653,0.0171010931656193,0.0313439970203059,-0.382750627178119,-0.56713449150904,0.00907290422041464
525,525,-2.4962871985579,-0.129368695841019,0.922083259653671,0.019172011219941,0.0176839631490061,0.0334975827146456,-0.575219261089219,-0.514200264539414,-0.106829504272043
526,526,-2.49611012062529,-0.128982041731756,0.922387529394316,0.0255296870440506,0.0215783849689307,0.0339811338598152,-0.394861839415584,-0.323675688530597,-0.599344356205882
527,527,-2.49595070690885,-0.128703841972674,0.922690560211221,0.0271230157519074,0.0242966247803912,0.0337984748413905,-0.380956336592429,-0.263813175253075,-0.674435226464665
528,528,-2.49579903096179,-0.128512032054836,0.922987180905158,0.0240318385825903,0.0255473273416321,0.0330225222107877,-0.345405358497556,-0.114207397786615,-0.541891125432058
529,529,-2.49564480713647,-0.128385390030781,0.923271570650225,0.0179183480745287,0.0248498842805037,0.0317395560990366,-0.306227819478193,-0.0474738213044526,-0.323687476619218
530,530,-2.49547734601257,-0.128303440181124,0.92353728839866,0.0107591394877571,0.0210331929892304,0.0300763705982302,-0.362694517863275,0.136705087330639,-0.0432589015468891
531,531,-2.49527320477797,-0.128277197268222,0.923792534422352,0.00960083323161711,0.0192260605347737,0.0269048954570305,0.00414867054054309,-0.0512423316946987,-0.246987128332735
532,532,-2.49503894269936,-0.128321300042277,0.924040999763963,0.00974142644560646,0.0171244662235456,0.0228755514123671,0.0307709704745211,0.0312268814424849,-0.310556309154108
533,533,-2.49480852460107,-0.128421065281069,0.924268839754962,0.0109028304646551,0.0141020443905675,0.0184791247032169,0.0156616316651481,-0.113164165266555,-0.474754788350298
534,534,-2.4946159359952,-0.128561774464276,0.924461902875142,0.0140359409526906,0.0109759510708974,0.013889968047585,-0.081250150746523,-0.163104520373533,-0.594538623740502
535,535,-2.49449527559754,-0.128728717695926,0.924605818565881,0.0163589140432164,0.00700666812934464,0.00891262818329716,-0.0444933798069127,-0.192484633434929,-0.573770472739021
536,536,-2.49443792747531,-0.128913523895695,0.924715193175095,0.0160714324138736,0.00212087699810172,0.00360092442543685,-0.133684491742311,-0.134314171188364,-0.56951108176472
537,537,-2.49442061945669,-0.129126330313305,0.924798913137157,0.0122304325605177,-0.00397786629345663,-0.00252461344311272,-0.108905320183155,-0.112678795854063,-0.596282067969144
538,538,-2.49445583307107,-0.129380017950851,0.924833875138176,0.00580399231730811,-0.00999612448094121,-0.00946405893217672,0.0472338181023102,-0.160118529084508,-0.610808040076728
539,539,-2.49455633719484,-0.129687299542172,0.924796942464426,-0.000808200701752661,-0.0165163608542641,-0.016770988607413,0.0792276611514681,-0.150698918203796,-0.629513432771832
540,540,-2.49473511420298,-0.130060880992921,0.924665077996885,-0.00744392656048732,-0.0218198472541705,-0.024169709978567,0.173805698844543,-0.245636969498567,-0.592780108168202
541,541,-2.49501220705421,-0.130482637151678,0.924439416682038,-0.0148722038623965,-0.0274015394468538,-0.0317352774768905,0.198729287004468,-0.235134980374116,-0.544469678200978
542,542,-2.49537930125882,-0.130944263823506,0.924135988466526,-0.0216333337931443,-0.0343712601402608,-0.0394282453059815,0.204133135642173,-0.123605137712564,-0.517979128149388
543,543,-2.49580677880911,-0.131473268668417,0.923754255417825,-0.0271991499890608,-0.0429912519745925,-0.0470587178200571,0.25686925985389,-0.0552611862986333,-0.558215695022731
544,544,-2.49626484763232,-0.132096951220634,0.923293446698463,-0.0319297849127949,-0.0528111768095932,-0.0545532135308208,0.256174679233822,-0.0641830257020691,-0.589231540726818
545,545,-2.49672355074444,-0.132842296496568,0.922752387150814,-0.0355679342837405,-0.0652686357421098,-0.061899879994552,0.228502750277701,-0.0263312666198636,-0.703858840198266
546,546,-2.49723062559899,-0.133693457752949,0.922078203775009,-0.0374457525624362,-0.081211797311657,-0.0714041912768223,0.058659054913822,-0.0117545581673292,-0.876940794412012
547,547,-2.49780569954696,-0.134632558129542,0.921273568570269,-0.0376286392882167,-0.0982908293542733,-0.0833070163527768,-0.0456242570345968,-0.174582635353007,-0.898658787818424
548,548,-2.49837665568128,-0.135682924050608,0.920419253084297,-0.0373185447188691,-0.11450827683488,-0.0939659564348799,-0.0933453092792368,-0.298405982202247,-0.820869091967637
549,549,-2.49887157479141,-0.136867347469794,0.919594423457865,-0.0371012314185157,-0.128321726823398,-0.0998289150953122,-0.199034950908051,-0.387760333752835,-0.696486458714177
550,550,-2.49921868758784,-0.138208124990569,0.918876660768906,-0.035509838261432,-0.138775618693242,-0.0975761374492468,-0.345054137830333,-0.556948374177778,-0.235823254965269
551,551,-2.49929144329915,-0.139873342273472,0.918234659443019,-0.0345226266070589,-0.144231219558793,-0.0816945425656356,-0.160445408088871,-1.45966883821213,0.0179944667022552
552,552,-2.49913743017902,-0.141846362745844,0.917615534892866,-0.0377969189456056,-0.149772806341709,-0.0558481186423609,-1.27831714298798,-1.61975950792724,1.08320887448992
553,553,-2.49894626698153,-0.143873150330608,0.917063329054482,-0.0466499793382184,-0.151346340836665,-0.024726081489368,-0.726473686742606,-1.99836170029791,2.44129185809647
554,554,-2.49890796447012,-0.145701102546991,0.916621738957429,-0.0450167867719203,-0.156938785050745,0.00206604569361773,-0.211014674282597,-0.90897192262821,3.63222856068813
555,555,-2.49921302433194,-0.147078923506859,0.916334241281732,-0.0340257103691549,-0.156191479680345,0.020982092305081,0.979649960268112,0.768214000662086,4.54156122484253
556,556,-2.50005281753015,-0.147922500520975,0.916257563625385,-0.0245359161773067,-0.134467009322487,0.0313937125664248,2.05397818095343,2.43824951587291,3.79157787868652
557,557,-2.50130101833164,-0.148401422187605,0.916362099793351,-0.0220395514014076,-0.0918531305945055,0.0380315331465747,1.47609803976895,1.89162095180202,2.20272486793058
558,558,-2.50267175580932,-0.14864483714558,0.91656205889688,-0.0244646978168752,-0.0538940085119583,0.042036639074841,0.125157704249687,0.909064208864685,-0.0736410943727794
559,559,-2.50387876038531,-0.148780598746801,0.916771330563162,-0.0325882757438597,-0.0283897663310557,0.042877836376459,-0.487720552138322,-0.214973989388398,-1.44217159864085
560,560,-2.50463533449589,-0.148935610006487,0.916903354222957,-0.044213902115436,-0.0185003795477962,0.0407061524954109,-0.632751586695691,-0.785608086437475,-1.43768722223388
561,561,-2.50482626459855,-0.149031079907665,0.916947844162023,-0.0424583719231821,-0.0133612544657639,0.0352981974125653,-0.07015278713838,-0.741610758402854,-1.82260938601297
562,562,-2.50464253116606,-0.148982300718846,0.916962794592045,-0.0398889487126926,-0.00770361478191327,0.0261602098971065,0.111400352258405,-1.1258976947487,-1.4369437310452
563,563,-2.50425659086346,-0.148907091215151,0.916963890857741,-0.0369101979621795,-0.0109506875838462,0.0148309952294347,0.0454182847138561,-0.499391536116336,-0.716486180518013
564,564,-2.5038409887826,-0.148922788945482,0.916966446375614,-0.0295228306915509,-0.0278178788794267,0.00413704121504638,-0.427863949978593,0.0329410888346088,-0.616007109329708
565,565,-2.50356838091257,-0.149146012812464,0.91698535088772,-0.0237835578755898,-0.0437067604383829,-0.0039488837307481,0.201065207655144,0.105219676940733,-0.322819072941049
566,566,-2.50345868154077,-0.149617061628002,0.917025442304704,-0.014463136405123,-0.0570857338557688,-0.00937017687007531,0.0869168069116019,0.439390041455769,-0.801168987604856
567,567,-2.50339693121348,-0.150257829914494,0.917077063276921,-0.00270309086024461,-0.0650030406555515,-0.0134118425539097,-0.4148769627967,0.312513359959604,-1.11846001718375
568,568,-2.50335354753739,-0.151006886473433,0.917132915190795,0.00909207230585703,-0.0645390592012922,-0.0161044211396378,-0.42365698648514,-0.253853936665022,-1.17737474517919
569,569,-2.50329886810811,-0.151802881536854,0.917185281206339,0.0198641037920614,-0.0594453889359972,-0.0177134498555936,-0.328170773647032,-0.592400815987558,-0.681151527161986
570,570,-2.50320311458745,-0.152584595660974,0.917226018989317,0.0260115698754063,-0.0547660541515849,-0.018121969736044,-0.172703538984672,-0.505975359207029,-0.199522849950294
571,571,-2.50304000027862,-0.153337252527936,0.917243151073242,0.0264658415372398,-0.0513204347600883,-0.0168800781709725,-0.120069585285192,-0.479205158535944,-0.346505262502008
572,572,-2.50282926389856,-0.154101589083722,0.917241781678579,0.0233976961310932,-0.0498981716237454,-0.0141759143112219,0.222911651876274,-0.147693711210289,-0.261883340446844
573,573,-2.50261006210806,-0.1548998734115,0.917239158331666,0.0204751876840064,-0.0519135485084009,-0.0103312582143309,0.17102728685179,0.128074197737719,-0.129272891651775
574,574,-2.50242157069291,-0.155754428246469,0.917252512962963,0.0207082230500757,-0.0546780637605945,-0.00551308490445262,-0.216532874267955,0.0307010746423941,-0.131941884802336
575,575,-2.50230302514749,-0.156687581620485,0.917299030230855,0.0236289000726631,-0.0582701265237679,-0.000406050839820327,-0.144938138307576,-0.141735852853887,0.27970721314374
576,576,-2.50229146103452,-0.157705242410035,0.917373034717716,0.0280235635115502,-0.0668353770811403,0.00534910811958859,0.0613948849249192,-0.0941193688916317,0.506022916896716
577,577,-2.50236057032221,-0.158792706398139,0.917462955873473,0.0317348813424308,-0.0805183122551358,0.0120988906690829,0.175153771521936,-0.155859613444801,0.71647484257992
578,578,-2.50245467439211,-0.159941336266696,0.917577064714459,0.0339422546784128,-0.0956343269555931,0.0192576296209148,0.15812728171847,-0.281317584518199,0.683702119114023
579,579,-2.50251815007696,-0.161142437345734,0.917723579880812,0.0353784704204648,-0.107959560505365,0.0262230233874299,-0.0149383115135135,-0.415051000144495,0.432033550412309
580,580,-2.50249541150697,-0.162387258033972,0.917910639302982,0.0355690279187118,-0.118548682157123,0.0316872349789333,0.0322710041108828,-0.0568766266829165,0.544947647116211
581,581,-2.50237287984898,-0.163711958727961,0.918146940291963,0.0353463113989721,-0.125547655928733,0.0356341801771172,-0.168767319503942,0.28433340551901,0.553845055820337
582,582,-2.50218758775729,-0.165122341937264,0.91842682045198,0.0366046218951111,-0.131896158664678,0.0388676861305024,-0.456487925138142,0.524381150848249,0.263240949974643
583,583,-2.50195989476867,-0.166564058965144,0.918736808033893,0.0378267139114515,-0.137979949163193,0.0413325451139766,-0.434446584092702,0.694696752742658,0.263414505342255
584,584,-2.50171017860935,-0.167982739645184,0.919063432608497,0.0379772315914183,-0.143180398600726,0.0433344250503347,-0.31201241223716,0.715062872875406,0.269303610307491
585,585,-2.50145882785329,-0.169324006259837,0.919393238096423,0.0365040925129083,-0.145973745898509,0.0450135579863929,-0.0668836620458787,0.482600694855468,0.392498194086558
586,586,-2.50118953057151,-0.170574547996648,0.919726531650875,0.0342729279852484,-0.146156946263074,0.0466200894341108,0.0884675935429431,0.250129903591232,0.428081911095435
587,587,-2.50088862771014,-0.171770526529213,0.920071962890865,0.0309422050678129,-0.144450471481937,0.0480251311971225,0.154393524065096,0.0712506237222187,0.34073402581922
588,588,-2.50058050381561,-0.172931760946259,0.920428771484946,0.0265134130390921,-0.140544901324864,0.0489444894152162,0.225527496770647,-0.129027363411984,0.299023343750767
589,589,-2.50028958171559,-0.174078038382112,0.920796390295692,0.0218329168418394,-0.133847925954753,0.0490303627980443,0.256522318082009,-0.062264535642578,0.176624310480012
590,590,-2.5000403373147,-0.175229128140087,0.921174435796095,0.018009781070639,-0.126029963574831,0.0480118745174141,0.352375129863739,0.0267843004053367,0.0415467124014853
591,591,-2.49983027039079,-0.176403345039016,0.921574759968177,0.0149413756601842,-0.117552515686447,0.0452704652926475,0.356219521348052,0.0819993124192316,-0.0303578927216507
592,592,-2.49964301320243,-0.177587391291915,0.921997743151949,0.0128535863846572,-0.106260129215741,0.0412612689854035,0.330990854915452,0.00903195770997778,-0.252088131600909
593,593,-2.49948235770174,-0.178753669161468,0.92242600467668,0.0110711530296453,-0.0935025473961046,0.036862531492146,0.277724495036963,-0.165432363884522,-0.481964156946576
594,594,-2.49935220044246,-0.179874613458808,0.922842268482167,0.00944680714944146,-0.0811406693356046,0.0328512799141952,0.175200798297106,-0.163827121723925,-0.494824598574589
595,595,-2.4992565415149,-0.180922676309281,0.923229392358189,0.00711301867955433,-0.0696785313174786,0.0301984710150356,0.125235495988349,-0.0191571894158315,-0.44810415059895
596,596,-2.49920048224339,-0.18189754490891,0.92358104063743,0.00434315440332629,-0.0570852764760759,0.029098530418717,0.110316326398914,-0.0621744982970925,-0.321986033771528
597,597,-2.49918164487503,-0.182817574812362,0.923909244570547,0.00143576565565796,-0.0435471895465954,0.0287409957604436,0.105104650349514,0.0854025310123912,-0.294627632315195
598,598,-2.49919280697495,-0.183683271180578,0.924224408171745,-0.000869646162479044,-0.0307344106299127,0.0286246681160101,0.0710339987140258,0.224938335512456,-0.195173383430111
599,599,-2.49922661307426,-0.184495187727851,0.92453670557234,-0.00305377945351805,-0.0199323995851453,0.0285480921021675,0.0558509094613281,0.300747447546879,-0.0891193642304839
600,600,-2.49927557998172,-0.18525393564957,0.924856069245918,-0.00425819464369039,-0.0115948415202487,0.0281281422799384,-5.69395257348695e-05,0.320656480699345,-0.108314988854189
601,601,-2.49935493835649,-0.185968516438351,0.925196236741816,-0.0068531597201057,-0.0069228585651794,0.0271379360058543,0.0671921486461722,0.304662507983369,-0.0479272148264518
602,602,-2.49946973196773,-0.186638618407879,0.925550852233725,-0.00995121053489551,-0.00591980855727261,0.0258325767364627,0.156324441897012,0.36620090424471,-0.0232479681766321
603,603,-2.4995971014365,-0.187250995918383,0.925899406526927,-0.0126955812568058,-0.00656794956270166,0.024241008761578,0.216532097026077,0.308009158200954,-0.143272837474339
604,604,-2.4997141311451,-0.187792470401572,0.926221176964184,-0.0146039229103803,-0.00772978915150816,0.0223685501059898,0.209522019568217,0.304343009008831,-0.204247925625978
605,605,-2.49979784398101,-0.188249904952939,0.926495225347806,-0.0152685014728069,-0.00720129044259264,0.0202664623860547,0.222614412744938,0.2042113168489,-0.320580753774545
606,606,-2.49984571234128,-0.188620114812339,0.926718728042264,-0.0128867356931544,-0.00438640954393994,0.017759902752538,0.217018249688998,0.214015439618665,-0.379753749350417
607,607,-2.49987303114048,-0.188912096787948,0.92690545993827,-0.00849299394940564,-0.000517362778840676,0.0148756016052628,0.230514331791171,0.241414933083105,-0.390289441626487
608,608,-2.49988352570593,-0.189130933397791,0.927059245149707,-0.00310143101322387,0.00432870753949052,0.0118127960164715,0.208303462263712,0.214625371244383,-0.420230622393334
609,609,-2.49988092031303,-0.189281628308461,0.927183908716983,0.00252431544559771,0.00903355098207547,0.00866639283619229,0.241966964458196,0.26519549536761,-0.436389846218593
610,610,-2.49986892638434,-0.189369115042383,0.927283269559145,0.00640855421418266,0.0127823699253636,0.00560012047258399,0.293741770011282,0.359188438055417,-0.337279008297082
611,611,-2.49984261689658,-0.18938026051746,0.927360535788098,0.00820457715057052,0.0165096709600646,0.00287928510011868,0.395681050913545,0.311317169369546,-0.290666352337266
612,612,-2.49979950062332,-0.18931172485929,0.927413027569804,0.00986402787002371,0.0191382373843676,0.000317130118258688,0.350626051495013,0.378128197167278,-0.307956941102438
613,613,-2.49974692922073,-0.189183057628676,0.927435722010418,0.0105756444339323,0.0211105950546859,-0.00224673054823702,0.398913685111327,0.413116810083621,-0.204509024611675
614,614,-2.4996922573285,-0.189013781610295,0.927423592852283,0.0115200427880895,0.0228210371998605,-0.00506329674250511,0.3172825556939,0.452823711601875,-0.23833893057789
615,615,-2.49964284658294,-0.188823405530203,0.927371612670937,0.0125987437547655,0.025209007687642,-0.00829594048574476,0.213986269270258,0.418016469890572,-0.316455497000696
616,616,-2.4996013160313,-0.188613974931693,0.927278920092429,0.0130022319015094,0.0276664190062233,-0.0121819815962239,0.261686917002694,0.339966518210901,-0.366146283519755
617,617,-2.49956274299341,-0.188372329816638,0.927148756966355,0.0120580522795594,0.0298285280355774,-0.0166200439659695,0.340202142240885,0.209999066357143,-0.369139584401661
618,618,-2.49952317633276,-0.188095185851635,0.926982243103675,0.0102968921956387,0.0322808825702789,-0.0213175111259159,0.413155870410065,0.0939729959093396,-0.396960785728669
619,619,-2.49947865331706,-0.187779290541352,0.926780489481936,0.00858296990709319,0.0349013255055012,-0.0258362460106219,0.383395290137331,0.059811390985512,-0.463312013633005
620,620,-2.4994252024819,-0.1874214321372,0.926544603264407,0.0070649441251134,0.0373389971850659,-0.0299010518461134,0.366164209554511,0.0409763029909145,-0.393989941552909
621,621,-2.49934202525282,-0.187020826002721,0.926286608147164,0.0062693270098484,0.0406218112173543,-0.0332354114812744,0.321582437693175,0.00614275955592974,-0.403986056981084
622,622,-2.49923175193196,-0.186579584903899,0.926005694777446,0.00588426597165416,0.0448180276445022,-0.0361319038622873,0.225498736528366,0.0349137678000014,-0.356235261001943
623,623,-2.49912553351305,-0.186098877760557,0.925683709503623,0.00445372796625469,0.0494817006549549,-0.0389738885312624,0.257644833890453,0.0492012038786495,-0.306537190998504
624,624,-2.499054488701,-0.185579870967057,0.925302485946645,0.00170254726855628,0.0545317048282293,-0.0422349614926426,0.258028795446998,0.13066438926221,-0.228379835150183
625,625,-2.4990496999148,-0.185023721822198,0.924843858683528,-0.00310239523645053,0.0601708991277344,-0.0461847840856337,0.244310110868608,0.128572569637574,-0.235526624581056
626,626,-2.49909634046841,-0.18448155185348,0.924306802902555,-0.0122403845634344,0.0644994378857717,-0.0510013048540051,0.366497302554024,0.20638098921562,-0.174012920140172
627,627,-2.49917365672122,-0.183952671658398,0.923703526286664,-0.0236751507674396,0.0677101857638493,-0.0562657833119478,0.384963641369061,0.258408100679757,-0.291124502577597
628,628,-2.49930372643242,-0.183360404773728,0.923035621327258,-0.035609269981202,0.0697840145272413,-0.0620127699909584,0.428631039220579,0.281476358997263,-0.423354926230028
629,629,-2.49950847444473,-0.18262791256476,0.922304508639786,-0.0461164546289712,0.0728361128481863,-0.0681450926283708,0.429021151313352,0.246711363770111,-0.422699741449896
630,630,-2.49980964897694,-0.181678158893999,0.921511416463447,-0.0543741927154907,0.0780482937466446,-0.0747359361481923,0.467378616709253,0.256420392719858,-0.457327696462429
631,631,-2.50030772025677,-0.180474128657643,0.920593179289864,-0.0615288414741635,0.0894334540583408,-0.0839237611673204,0.546098655794056,-0.0767207480990052,-0.465850544030254
632,632,-2.50098745218119,-0.179066681746948,0.919548726181811,-0.0672564672156843,0.103280328062272,-0.0958554407422808,0.300513077524989,0.079842842620464,-0.455641930116043
633,633,-2.50169717483048,-0.177510498354657,0.918472278769822,-0.0705454635992228,0.115495023011451,-0.107198458023714,0.0685361364556276,0.476359990289098,-0.521594780947973
634,634,-2.50228568085016,-0.175860405502719,0.917458044443353,-0.0708545955401999,0.125872224625435,-0.115144449162256,0.137438826909208,0.676616581872642,-0.691107825605999
635,635,-2.50260225311168,-0.174171439704359,0.916600279668519,-0.0682834084022343,0.13192406053557,-0.115878623010862,-0.299711866382274,0.42452776127947,-0.449087096604958
636,636,-2.50245654234469,-0.1722524302909,0.915896499942443,-0.0558620720193802,0.135028791177938,-0.105839188100387,-1.13755413075263,0.665319373973194,0.219831908266805
637,637,-2.50194931457611,-0.170066363792187,0.915284049900609,-0.0366736011084737,0.13619252663722,-0.0829751668953895,-2.21776584247095,0.755627005558265,0.455524856714071
638,638,-2.50136674507903,-0.167900211352839,0.914766848037472,-0.00914046039281691,0.133571616715859,-0.0596128366152307,-1.88308671980243,0.894532849367283,0.682297764797053
639,639,-2.50099485530895,-0.166041580504114,0.914348512224457,0.0210704864948438,0.129431864513658,-0.0370901251747522,-1.29081910006248,0.225527745045557,2.13601961212859
640,640,-2.50111968649469,-0.164778417342548,0.914032477540222,0.0446338380678468,0.131509527743311,-0.0196344761283432,-0.273266464228568,-0.573197396666711,2.90391843845235
641,641,-2.50197518621616,-0.164345770513802,0.913858587693588,0.0439112894391653,0.114605740321977,-0.00877376110649517,1.50170121190654,-0.369954563551599,3.25989572306882
642,642,-2.50337145805224,-0.164551753918056,0.913825309640933,0.0204100095948902,0.080133206725502,-0.000873767213128416,1.94582550685183,-0.344787414718894,2.87996500120669
643,643,-2.50495878269334,-0.165043967762775,0.913873750502864,-0.00567805709265224,0.0498195120891267,0.00650040904940526,0.610930171380905,-0.408283920212374,0.529603148123526
644,644,-2.50638668275392,-0.165470722176894,0.913944081382007,-0.0252972007588408,0.0199330137194433,0.0123244173322368,-0.412704833104798,-0.105044445980848,-0.950386256008993
645,645,-2.50730381389247,-0.165481165858051,0.913975440073937,-0.0390029700004114,-0.00605188674971068,0.0151036956508353,-0.561170038051207,0.000876847600761144,-1.0421918047675
646,646,-2.50765094792239,-0.165016009638722,0.913968001093023,-0.0464782031786422,-0.0157293012720137,0.0133220731847918,-0.67198420499822,-0.148689194653951,-1.13720581357314
647,647,-2.50766217061114,-0.164309575662045,0.913962049498573,-0.0504467732644677,-0.00893146079731718,0.00747710779863859,-0.805071679962785,-0.118436937658807,-1.23948607810856
648,648,-2.50742571234937,-0.163451740437834,0.913956445659187,-0.0506668450297207,0.00603546175290541,-0.000105700842462427,-0.683736110346559,-0.000347347485654378,-1.00631289144582
649,649,-2.50702981656854,-0.162532346173155,0.913950057737767,-0.0478365001238053,0.0205282846117805,-0.0072079941464376,-0.208930890695672,0.358299335427513,-0.411633397236278
650,650,-2.50656270505262,-0.16164125990944,0.913941729416805,-0.0429162129375674,0.0297686986380059,-0.011077668630986,0.302873477905996,0.537814323031171,0.322305652838616
651,651,-2.50594410431006,-0.160730607436623,0.913922702156952,-0.0336186641796218,0.0385803809439173,-0.0101702325174745,0.530690911436002,0.339342917891133,0.395524935165746
652,652,-2.50511539070222,-0.159740256723636,0.91389415559647,-0.0173462200082003,0.048667630085914,-0.00612762646552276,0.446888024524079,0.329344637114376,0.429950280778042
653,653,-2.50419711326623,-0.158741829577487,0.913869632832069,0.0059822650642605,0.0576453206533305,1.55452364741719e-06,-0.167259484470978,0.0263524873302226,0.0919568736940952
654,654,-2.50330963551464,-0.157807209000269,0.913862295470641,0.0289832441031571,0.0670491231721516,0.00656733463646343,-0.381389813727447,-0.286164807548841,-0.26085221546817
655,655,-2.50257314484468,-0.157008552590374,0.913884891111873,0.0438623458816663,0.0753245906735884,0.0114920633621602,-0.117457505328755,-0.186353848251026,0.100488635924003
656,656,-2.50198446648236,-0.156418956401204,0.913941025082742,0.0526036715244073,0.081169414512788,0.0151316250622172,-0.00349461137626375,0.209937568063006,0.15538709410415
657,657,-2.50146333551051,-0.155990586290226,0.914021967766163,0.0569376744047767,0.083250344954684,0.0181714372035732,0.209216143577569,0.596959168004749,0.427432982090654
658,658,-2.50101424530704,-0.155614239133197,0.914121741578698,0.0586819990115897,0.0864263300278609,0.0209786057083627,0.0653880605932939,0.598014568465792,0.368922667162731
659,659,-2.50064168609521,-0.155180576325153,0.914234387531883,0.0580751674269625,0.0894717419827594,0.0234182550584816,-0.244679219993434,0.579272509382675,0.285770032074794
660,660,-2.50035013957096,-0.154580150574218,0.914353959181399,0.0552702397998515,0.0915359545099209,0.0252172700352497,-0.26500898085489,0.558641897314581,0.394197801571247
661,661,-2.50016703883304,-0.153803857011981,0.914472625425701,0.0496602063518672,0.0928973201194885,0.0262599629068006,-0.0553139102148568,0.549567322236,0.510919212184779
662,662,-2.50008944627583,-0.152924546245768,0.914594332688168,0.0415494417114965,0.0940926026991891,0.0269356491006319,0.0118295610862598,0.382076307269769,0.346210240489911
663,663,-2.50007623795486,-0.151955654479471,0.914730807871609,0.0326077090056633,0.098994791784176,0.0274608905664614,0.0752593912010956,-0.17329753065835,-0.0725305072410764
664,664,-2.50008616874753,-0.150910592243401,0.914893736444228,0.0229046792478177,0.10748194205891,0.0275263200345246,0.225368753331372,-0.648503276375992,-0.182267647872235
665,665,-2.50007783879124,-0.149802719200741,0.9150947280584,0.0152602048524219,0.118157550093822,0.0269465017159349,0.0831430717377595,-0.796759593908538,-0.0664776079623189
666,666,-2.50005962083851,-0.148609528594757,0.915336643301107,0.0107705335828217,0.128190562803527,0.0252976835346285,-0.209613021903796,-0.572609882060143,0.029315903186303
667,667,-2.50005875725466,-0.147321826962455,0.915611549087512,0.00703648036452168,0.13806700425347,0.0226132902737845,-0.245507243726886,-0.415564075468209,-0.0757149680838084
668,668,-2.50006209354854,-0.145973016265631,0.915914876552985,0.00342703920001237,0.146317984993757,0.0197057954099328,-0.358597872248358,-0.220965473408185,-0.20002446076332
669,669,-2.50005659974938,-0.144596675386141,0.916242204185726,2.83136780741936e-05,0.151426763807955,0.0171465043435208,-0.404965653927141,-0.161059537422746,-0.260630825112385
670,670,-2.50002938935486,-0.143226563665251,0.916589293687398,-0.00182096299512529,0.15154141619685,0.0155429997226559,-0.375393084135456,-0.202206635076037,-0.362361814724002
671,671,-2.50001014572259,-0.141819068227208,0.916967602700991,-0.00198855939086931,0.147276616122835,0.0148605951199609,-0.406629217439562,-0.206175270874018,-0.51152768219508
672,672,-2.50000720387491,-0.140351795431621,0.91738000259609,-0.00172985374656131,0.13826799560598,0.0145097387449277,-0.488927096832944,0.0906564282961472,-0.4034956225127
673,673,-2.49997599184211,-0.138890381632864,0.917809780365971,-0.00207571158630896,0.126777693293278,0.0144512688531582,-0.242492788598505,0.205147240117298,-0.185587743130917
674,674,-2.49987224321185,-0.137500373520832,0.918240533999659,-0.00419448109631718,0.114875754714225,0.0143792583868213,0.236251843982114,0.140785649252547,0.243555529261038
675,675,-2.49965197220803,-0.136247253454094,0.918656172087109,-0.00323602489305104,0.102855979556941,0.0150098158838908,0.14153520304022,0.139114604436106,0.287722407180381
676,676,-2.49928575553863,-0.135105497567931,0.919059302264704,0.000677100333261657,0.0876335333549736,0.0160857434583992,0.121964108797075,0.0219323779233163,0.0991755006480356
677,677,-2.49880329783839,-0.134031541054356,0.919461747305633,0.00713578583993554,0.0684630582141188,0.0173891499866449,0.211952562149633,-0.0614298566613118,0.0689532551256788
678,678,-2.49824951245644,-0.133063596290426,0.919861357989411,0.0159243204877186,0.0504155994055238,0.019209114227961,0.126315499050076,-0.321903698599516,-0.203317085531161
679,679,-2.49766942096453,-0.132239546345779,0.920255793425035,0.0248678134671537,0.0341181914251772,0.0216577243032602,-0.0131985555621635,-0.381048579929862,-0.330231561166849
