,Frame,CoM pos x,CoM pos y,CoM pos z,CoM vel x,CoM vel y,CoM vel z,CoM acc x,CoM acc y,CoM acc z
0,668,1.26278055717939,-1.61600835870317,0.95641604437359,0.0852457962266046,0.225336750012152,-0.05817300460403,-0.120505299041208,0.139313552757782,-0.578018190955997
1,669,1.26380362084615,-1.61420641226726,0.95607642011849,0.0864419349287211,0.221729038153416,-0.0608770897502845,-0.0898621690585472,0.266605612525132,-0.491463825480959
2,670,1.26488172674288,-1.61241758690507,0.955700139228831,0.0877503496561967,0.222075855929179,-0.06259515185904,-0.190649827567253,0.384137745479783,-0.397287801086488
3,671,1.26600024420371,-1.61058107879397,0.955301626905759,0.0884774446853772,0.222358963384363,-0.0621816104309628,-0.240382320380484,0.50807448255243,-0.200203345450198
4,672,1.26715526914725,-1.60869940297184,0.954908494053985,0.0890378651213961,0.221344821899898,-0.0589339068874495,-0.213845439575252,0.517911106212749,0.0429141478418258
5,673,1.26834399196526,-1.60675492551877,0.954544025221114,0.0904479313098142,0.220772571729774,-0.0534136293427813,-0.0914140222862338,0.465610765221535,0.236308087979091
6,674,1.26962966909555,-1.60478708719053,0.954305275054334,0.0949837757408587,0.219506931139941,-0.045415483563175,-0.298424236794506,0.467495737711871,0.565689101146827
7,675,1.27104358017985,-1.60278868968709,0.954169605390228,0.101038560960511,0.220104936001523,-0.0357616987292799,-0.459169292386523,0.349127919967263,0.794299767172913
8,676,1.2725354950852,-1.60079377454225,0.954086566445151,0.10881162054631,0.21655984361037,-0.0236518326321258,-0.36773386026947,0.323853938036445,1.04412193210367
9,677,1.27408532287283,-1.59881404920013,0.954069724110776,0.118374120807883,0.211283250569565,-0.0103263926616664,-0.0919487456123357,0.108055449308779,1.1933451983514
10,678,1.27570465854163,-1.59685985814031,0.954103511838959,0.13018079308981,0.205051951811928,0.00193691088601224,0.206700565394601,-0.0450018998065363,1.17600931036529
11,679,1.2774426175237,-1.59492944559685,0.954152365820677,0.142633999940516,0.200627332175564,0.0114954032885479,0.287789811267384,-0.0821856063017243,1.06915033653345
12,680,1.27928460918305,-1.59300882686163,0.954193800969487,0.152809206163443,0.198084752380206,0.0180271545835945,0.300262594381993,-0.0706523553945064,0.829050967527139
13,681,1.28117651467553,-1.59106644026581,0.954206172644503,0.15954417045117,0.197866662506842,0.0213744419101108,0.256582130143072,0.0102900451106638,0.542171353531236
14,682,1.28307155480874,-1.58904281321098,0.954164884505629,0.163956484603645,0.201016336493427,0.0220393215582671,0.154680386106696,0.114205657078489,0.350268945195747
15,683,1.28492826099228,-1.58692413493814,0.954070080718172,0.165540632160409,0.205734545592887,0.0223748899666217,0.0872262274738498,0.268428659442766,0.310929904158585
16,684,1.28675386584407,-1.58467635263864,0.953908108385861,0.164976266221093,0.214415816091773,0.0198261731562715,-0.166585076806287,0.453747950893403,0.13682433562176
17,685,1.28842378736722,-1.58218618436005,0.953681588551807,0.161944889307135,0.225662481177154,0.017411455498543,-0.280598567029176,0.698810111562613,0.169628015157085
18,686,1.28993546908502,-1.579563913735,0.953419415383791,0.158087655264998,0.237528027580643,0.0138233353889499,-0.213622862830352,0.708932990479735,0.0680869035989513
19,687,1.29131024263657,-1.57678005263027,0.953119629624303,0.155105130614214,0.247981139875844,0.00916099558363541,-0.0758769898506117,0.65166932819244,-0.00725578139354707
20,688,1.29263221625049,-1.57388564451748,0.952783213337187,0.15295137969818,0.257386939119681,0.00579783444962281,-0.0344350855736339,0.586442787383607,0.123450971702645
21,689,1.29394152583299,-1.5709590939835,0.952357269515579,0.15016394717737,0.264362530441509,0.0040626300221703,0.00715042374478366,0.594058431968394,0.227711834000249
22,690,1.2950828863699,-1.56807777270458,0.953757644874362,0.141445277381335,0.26722802258454,0.0149471619027604,0.0576068282712568,0.507867371348404,0.291904798824279
23,691,1.29628043288525,-1.56515402581234,0.953418692139563,0.13422005683714,0.268838750082749,0.0173585295249532,0.114142380070036,0.408605907951474,0.377795437852585
24,692,1.29742737854476,-1.56223054716755,0.954695794186622,0.126772834076333,0.270533086896445,0.0299680625903466,0.026220338603184,0.196599757522092,0.552337010751151
25,693,1.29826474679421,-1.55944631903812,0.95623842978621,0.117426688551063,0.271691142999054,0.0427891540662938,-0.126240069653574,0.044591107442344,0.62693381085507
26,694,1.29902612243186,-1.55641261891397,0.957590890421574,0.108958696184788,0.276144685732436,0.0538239270241773,-0.332739122899255,-0.0343371452116481,0.756727300715447
27,695,1.29972237308039,-1.55340178040303,0.958882630349284,0.0998778326991374,0.280063189273968,0.0650882869542879,-0.332934184266475,-0.198258879967027,0.875617331866558
28,696,1.30043841017196,-1.55031047639215,0.960168823278075,0.0932243441695868,0.283815809217996,0.0762673440983587,-0.144594265144124,-0.390485729007266,0.954319666714837
29,697,1.30125319556544,-1.54719194470027,0.961465985955493,0.0892131011287941,0.287824628947432,0.0880047843053121,-0.0515988706831529,-0.395447263599463,1.07782751715695
30,698,1.30236024158715,-1.54398688856098,0.962783934185382,0.0916472283149905,0.293704350299009,0.098481665909915,-0.170203442271448,-0.257356733505708,1.10763398319293
31,699,1.3036694477676,-1.54075824414974,0.964137786009642,0.0976767973208241,0.30061363795596,0.107954442758117,-0.267484976532882,-0.188635032173532,1.07292192780822
32,700,1.30527105744258,-1.53746951716946,0.965522242964598,0.109445075959026,0.306968676624364,0.115724115956933,-0.168636127413729,-0.119209702141275,0.97595689825035
33,701,1.30707415485229,-1.53426860626703,0.966937606473547,0.122415911676584,0.309101752498196,0.12356661112202,0.0380982209210203,-0.114657232398602,0.871314412469309
34,702,1.30900708096993,-1.53123398143635,0.968373447011538,0.134131597217175,0.307877714397303,0.129819775788569,0.0684709320138521,-0.159052842818765,0.666364742787097
35,703,1.31095581427747,-1.52847484334783,0.969809003124242,0.144259536628256,0.301846872269788,0.132016520469387,-0.0909784362219833,-0.199273232012873,0.334511936865287
36,704,1.3126496493323,-1.52612209659711,0.97125658369337,0.148100342702456,0.290059001140761,0.130817989712696,-0.354883069297165,-0.137595656303173,-0.024668948189383
37,705,1.31380030671617,-1.52413639948495,0.972791437804452,0.141359092274001,0.271801887404518,0.127940803314261,-0.685945395618529,-0.0384075919269258,-0.317557419552568
38,706,1.31449896991087,-1.52257759713846,0.974219325165364,0.123659761926894,0.250704230772498,0.126371367448003,-0.561710135695396,0.0633957061960423,-0.493739041243139
39,707,1.3147807869553,-1.52110901071891,0.975466105000821,0.0946273358361793,0.230910085645706,0.121323948803416,-1.10413576126593,0.0867641034793616,-0.730821391717995
40,708,1.31487461705719,-1.51948601776195,0.976397025293142,0.0699144802733568,0.217648525827078,0.112334229755797,-0.957866250614489,0.181391724537742,-0.756000747545293
41,709,1.31502607001085,-1.51764587513796,0.976959143132843,0.0535044685399535,0.208538042444601,0.0979502410940825,-0.812836481248804,-0.0609377379288958,-0.863344544383558
42,710,1.31536408171649,-1.51570136367475,0.977174728630777,0.0477092851730056,0.199904171262369,0.0777310929169843,-0.666945579317904,-0.371798880926988,-1.0691316077539
43,711,1.31594382940174,-1.51378595573373,0.97713336089869,0.0493699107014399,0.189394333200767,0.0571076219813337,-0.340757814728255,-0.602260424963535,-1.11023455170593
44,712,1.31676404646219,-1.51194247815633,0.976951681764281,0.0534233092506329,0.181961803048989,0.0419225967809614,0.0902727307874793,-0.626500260897599,-0.812501474879245
45,713,1.31780907923282,-1.51016201382612,0.9767087064088,0.0605433284119176,0.178983151987188,0.0303866971980316,0.2102128420099,-0.551346056011854,-0.491218323840314
46,714,1.31900739633407,-1.50846244386598,0.976458682550557,0.067744918430472,0.174580642528198,0.022854384284982,0.217235989869678,-0.547775457562185,-0.222829496187275
47,715,1.32028127466461,-1.50682768349749,0.976220526687384,0.0758637995257212,0.170458288577638,0.0166745347020348,0.302031897600841,-0.714154877038583,-0.134408134649459
48,716,1.32157760603988,-1.50528923855632,0.975990749942401,0.0848515879860365,0.164699945442407,0.0115384808226009,0.365470336672567,-0.597870418097162,-0.0633224509169832
49,717,1.32284555706781,-1.50382695679619,0.975779743836616,0.0901801023849734,0.157965610461633,0.008099089534796,0.316258480767701,-0.507842787608291,-0.0402771859869326
50,718,1.32401897702082,-1.50243654548393,0.97559303958001,0.0907075080510384,0.148368321240589,0.0046128431954204,0.385935802079762,-0.361955650746747,-0.289914178523903
51,719,1.32504715796304,-1.50111303559332,0.97542083633301,0.0884093659477932,0.136198175527837,0.000672584469001081,0.547968772537574,-0.291117182207717,-0.507320733815326
52,720,1.32558160397996,-1.49979590451978,0.974532371170583,0.0790616807238441,0.117988223286996,-0.00138753116402486,0.91643133270191,-0.0855349046117792,-0.764279429646284
53,721,1.32628048865281,-1.49864529607078,0.974329299680935,0.0789697182911039,0.111339169685945,-0.0160717169931817,0.392383606996157,-0.432299751610476,-1.01786916618121
54,722,1.32666695651977,-1.49762807357213,0.974104504585169,0.0606690531871917,0.0915539744329471,-0.0268318200010422,0.970590375775953,0.14369124841234,-0.984002070009233
55,723,1.32682710252988,-1.49668135035576,0.973820201289686,0.0479121511504898,0.0766245670985048,-0.0435447820304542,0.529237513693151,0.0682603807755793,-1.26577066121266
56,724,1.32678193328895,-1.49579135535007,0.973508743370138,0.0382262425496588,0.0648678819730285,-0.0582966845950191,0.403129246229681,0.0638304608164371,-1.3871208587538
57,725,1.32659652239583,-1.49493731836984,0.973179872653437,0.0314416231423847,0.0561476570596928,-0.0714432204529871,0.000842379094841029,-0.117939718199147,-1.40269169515912
58,726,1.32637765252394,-1.49416021255315,0.972835511661961,0.0276995210768847,0.0510016745477486,-0.0817659099676958,-0.322865855584891,-0.16650156264847,-1.21942187912201
59,727,1.32621849560151,-1.49345998444621,0.972463903985947,0.0283051074056478,0.0440007365349255,-0.0927398984570781,-0.46090894373092,-0.579959657662412,-1.35417316512667
60,728,1.32617556291621,-1.49289523674695,0.972054298350371,0.0287758598592327,0.0335257766210733,-0.0968277467748167,-0.326131290504512,-0.890071228114694,-0.870984639084436
61,729,1.32627495742102,-1.49243204111336,0.97164689628274,0.0291535721961898,0.021603797545328,-0.0941658970223477,-0.333341977207215,-1.06786854593818,-0.338962893672874
62,730,1.32653829941321,-1.4920891913419,0.971277350692118,0.0282753427859478,0.00875270111327552,-0.0864371188249518,-0.498965475287318,-1.02640939146391,0.144671679645684
63,731,1.32683992106003,-1.49187566283416,0.970899753976652,0.0279139670683276,0.000124996824915255,-0.0772626111274612,-0.33079870724676,-0.883668050007832,0.500865129968584
64,732,1.32719526318664,-1.4917668104729,0.970683630941476,0.0306417031071024,-0.0074146604021486,-0.0615030182142528,0.0588493799617613,-1.03745236035504,1.17135764207447
65,733,1.32756470908586,-1.49156203840314,0.970604310703151,0.0251663150804233,-0.00662215524064343,-0.0401364564174809,0.111936537660298,-0.133988428853993,1.5512171748336
66,734,1.32794845397013,-1.49094285418258,0.970652670330291,0.0176159525048529,0.0120910143810502,-0.0246282561316878,-0.44247037585171,0.454349678882852,0.991300463383494
67,735,1.32827534361365,-1.48994686418296,0.970662517431173,0.014397668249605,0.0354997049184727,-0.0167099726798919,-0.598236849773217,0.205752117477312,0.553573265696036
68,736,1.32836943066583,-1.4889538889285,0.971014886424801,0.00678132611653618,0.0538870396906658,-0.00718091787162999,-0.669945197647539,0.0288876307129063,0.472541213320152
69,737,1.32956571248382,-1.48832940062276,0.97143663717479,0.0142852363301258,0.0639517461419773,0.00184219483419326,-0.532750282783841,-0.176725667326929,0.419047440872019
70,738,1.32974838114628,-1.48774075969379,0.971764254251819,0.0145242249255098,0.0656868697502565,0.0068214662771746,-0.236998745828832,-0.43858085993007,0.208897244017462
71,739,1.33055897224111,-1.487259769907,0.972069519829838,0.0201568807574988,0.0639663625339078,0.00949315396652017,-0.174608544908726,-0.554516564765857,0.09663287702477
72,740,1.33091541459304,-1.48662928463382,0.972451861532034,0.0256184850806369,0.0617178146629355,0.00986903919214186,-0.335942072437651,-0.715024245292627,-0.0388455537897121
73,741,1.33130212243914,-1.48589388588503,0.972903925581854,0.0321097305703796,0.0627678822499365,0.00807606564916453,-0.412731461853004,-0.904241528446957,-0.16774694669023
74,742,1.33186693235746,-1.48500306306543,0.973303005641623,0.040788845053174,0.0661165711518534,0.00582692898288005,-0.603392968122688,-0.813626857267803,-0.187577735530011
75,743,1.33246938674905,-1.48397049905735,0.97352098144218,0.0468861832092714,0.0703662937711578,0.00482011808562926,-0.603259225034124,-0.738309811735932,-0.0638898477822574
76,744,1.33312287719797,-1.48286079313695,0.97379079176608,0.0500419724755302,0.07283624179326,0.00623874056668649,-0.59624689402358,-0.649817402580304,0.107481277405349
77,745,1.3337984438705,-1.48170907297732,0.973984468431598,0.0495120845076975,0.0745520223723598,0.00998620385481615,-0.541915930340681,-0.460171720010407,0.325836352671546
78,746,1.33444610286507,-1.48053460103841,0.97428532918112,0.0467338750606371,0.0766658323126253,0.0160730853630038,-0.449139811074975,-0.290878996676097,0.490210351032374
79,747,1.33518429021142,-1.47947847401591,0.974695018690192,0.0470883067532032,0.0754150092946963,0.0229292102855044,-0.405607856547453,-0.196826957553066,0.61790013362468
80,748,1.33593377314071,-1.4784460504106,0.975120823765338,0.0521557740546423,0.0769823608462465,0.0278787152654602,-0.375872312637042,-0.109079342515972,0.58079489138649
81,749,1.33681426257612,-1.47751122040721,0.975563249397428,0.0619688642020931,0.0781670476906406,0.031134524509547,-0.302121016738052,-0.130403888545908,0.500949304431755
82,750,1.33783955600302,-1.47664032144943,0.975985844768193,0.0733025407676978,0.0801118619009644,0.0328388010996333,-0.187123857109356,-0.163240634823946,0.381290640879003
83,751,1.33904602348105,-1.47581143805364,0.976372707444935,0.0860019797041495,0.0828118632319175,0.0324657756224803,-0.116375541390558,-0.135436913946754,0.215519174820099
84,752,1.34041128615429,-1.47496988681257,0.97670533026064,0.0985467442319791,0.0860805259836135,0.0295572343535975,-0.0860478768013911,-0.0728334748484446,-0.000495726485067529
85,753,1.34187897942102,-1.47408026107171,0.976969709936698,0.108075455681061,0.0899272387307605,0.0253952336013538,-0.0363932798203944,0.0360549055004945,-0.166582091835288
86,754,1.34339458416353,-1.47311867609789,0.97717020163735,0.114185728064404,0.0949871569376459,0.019841700293433,0.0155962334812721,0.131712735814722,-0.358221252063831
87,755,1.34490751350842,-1.47207212305584,0.977286255125179,0.118120169293159,0.0994269407983918,0.0128048760028504,-0.00255377605454782,0.221608526776531,-0.53280451662362
88,756,1.34637248470301,-1.47099822437336,0.977352450420947,0.12078626474525,0.106946471431715,0.00536155016468949,0.0421237931432166,0.283513647420723,-0.585434485558416
89,757,1.34777740504623,-1.46989678349085,0.977357541630743,0.121394890104611,0.112327170308862,-0.00244786983753356,0.0541298063476098,0.245324780572578,-0.623775064558557
90,758,1.3490954498959,-1.468769628837,0.977320055262826,0.120709496270039,0.117808615756614,-0.00935432431424756,0.0674981376415796,0.254974374744229,-0.586190007783115
91,759,1.35034916541627,-1.46760763303188,0.977252502763518,0.119719449550231,0.121763095994074,-0.0147903205259609,0.109656259048375,0.202563909649098,-0.488290885792387
92,760,1.35157006186898,-1.46640638300618,0.977198659912676,0.119037644487627,0.125340280077203,-0.018041428925875,0.0964736512874438,0.2023861376567,-0.391685353493226
93,761,1.35274367598925,-1.46517773605806,0.977172278344889,0.118268939636549,0.127143676791119,-0.0191575964162275,0.169958707171552,0.200362543258347,-0.274455019264176
94,762,1.35388704825337,-1.46391192924132,0.977182240616693,0.117054517671969,0.127877296453504,-0.0187895374626969,0.12597938446061,0.177693023805254,-0.184792314591979
95,763,1.35494898240418,-1.46262020109451,0.977216493527897,0.113435911369129,0.127586827964072,-0.0174434049829415,0.19726755757359,0.131695627795403,-0.107466156712043
96,764,1.35593375990092,-1.4613251746426,0.977287780679832,0.109724961578309,0.125941516410561,-0.0144305268081288,0.213217503996916,0.0166527857929922,-0.0342984386419745
97,765,1.35680878737854,-1.46005675154579,0.977397607165828,0.104717892792398,0.12472421946697,-0.0105242833449915,0.207593413183339,0.0355742731249409,0.0572206054034213
98,766,1.35763634716927,-1.45880877697145,0.977555921309027,0.0996285288449777,0.12281566708662,-0.00538015155225808,0.18220563119565,0.0099682636649425,0.176566433780229
99,767,1.35840706137461,-1.45756078984297,0.977760746764391,0.0945237607215264,0.122191995426431,0.0009221149474314,0.0342551199690831,0.0892002132685268,0.308906481336997
100,768,1.35906881162486,-1.45626409052486,0.978020895756637,0.088002907368317,0.123585992693051,0.00833733442909843,-0.0543821915564523,0.191088479586538,0.423906494600859
101,769,1.35962073978163,-1.45489764095001,0.978343714423103,0.0816568090594148,0.126202600446138,0.0172273351001891,-0.153222253244073,0.27404471055984,0.606749238997157
102,770,1.36007131215147,-1.45340929783482,0.978727296020053,0.0753612979974802,0.130838159974969,0.0273285245772123,-0.0756972885322081,0.273101286162766,0.74049591104035
103,771,1.36043797910154,-1.45179613660638,0.979152296724387,0.0704382164368586,0.135326533622076,0.0376826844791125,0.0506954709251016,0.224556081830134,0.822217468979018
104,772,1.36071965937561,-1.45003350575798,0.979614028196113,0.0636686918826351,0.140263207536592,0.048436780462289,0.163755942818316,0.107410809540605,0.875872429787563
105,773,1.36075354805402,-1.44803947735684,0.980086699538626,0.0563772621488979,0.148166275666474,0.0563845909488536,0.116334913232204,0.0524776184604152,0.78118364107686
106,774,1.36070622816259,-1.44582912142102,0.980544692418366,0.0473545204405798,0.159522534793442,0.0620500603661614,0.14980799997809,0.0784134229182874,0.625227475386536
107,775,1.36048926264081,-1.44339621562372,0.980947937226425,0.03783642606274,0.17531707746503,0.063235148520359,0.259797012049714,0.00281200835327309,0.323322518150772
108,776,1.36017025135537,-1.44083033998353,0.981272153636461,0.0287133935977677,0.195447858171243,0.060932582229097,0.262071765329176,0.171658642305219,0.0592864154129782
109,777,1.35980575195319,-1.43818254346344,0.981503113448585,0.0221213209093924,0.21662216294087,0.0553451456341964,0.31312265123006,0.291520980902285,-0.201810414220977
110,778,1.35928909907705,-1.43540523568625,0.981619456390254,0.0154685533718104,0.238432564076038,0.0462864924151536,0.40903069699245,0.215145535835437,-0.479627095506412
111,779,1.35874028586262,-1.43260342749893,0.981611552592895,0.00740727457014049,0.25646132457979,0.0356435153861961,0.258610596536628,0.311752130900302,-0.627206182816297
112,780,1.35804157590854,-1.42982397551591,0.981480215619712,-0.00244643065797481,0.270638095935285,0.0230969516352415,0.33136415691588,0.214746157001246,-0.846638123269015
113,781,1.35749154763315,-1.42711007932075,0.981215497723444,-0.0106574914332217,0.279008141576121,0.0112340430872833,0.738592139133308,0.169297795913934,-0.870587547861064
114,782,1.35722841440351,-1.42461453204461,0.98084287304012,-0.0112246106640799,0.284030861606546,-0.00166009465410099,0.810403491426386,0.322425450114437,-0.861470545826289
115,783,1.35758207646864,-1.42222530534118,0.980377960975897,0.00276376034555354,0.28585279711764,-0.0134206585332488,0.629711411336586,0.576941519844916,-0.709669834350293
116,784,1.35924019400416,-1.41956750933533,0.979891430203123,0.0367159221402346,0.290040494981063,-0.0200276742798965,0.736654132866438,0.969346457184202,-0.430715515217342
117,785,1.36253368274824,-1.41633326998976,0.979422092307663,0.0941359416097772,0.30537203483142,-0.0270568203780571,0.483876913803578,1.32274473093924,-0.418552100777804
118,786,1.36684870612103,-1.41264135367671,0.978974903430957,0.159033509657358,0.327386118740919,-0.0321607884701705,0.242703904881583,1.46324850091448,-0.244124485738597
119,787,1.37146391130752,-1.4087901547915,0.978536594817245,0.216197346051887,0.345405277816627,-0.0351240989834486,0.257201661919952,1.40365314848904,-0.144674930178771
120,788,1.37603353705003,-1.40505649422803,0.978088636672952,0.260815899942843,0.355501705366951,-0.0355308535443961,0.366146487618878,1.4525821487549,0.00107645014152678
121,789,1.38036990864417,-1.40157237452722,0.977637435918842,0.293243488077515,0.357912650299608,-0.0319478057752149,0.497080876701636,1.43633654681883,0.335514533918287
122,790,1.38440229050817,-1.39836638667387,0.977211178584097,0.317531175772221,0.355835779236777,-0.0259210934933176,0.696754094756873,1.35417425194167,0.58589748844823
123,791,1.38811799478582,-1.39538645397447,0.976820969602133,0.33535502227608,0.351358424519475,-0.0214672736091515,0.893814716733025,1.1170535586493,0.49794006992641
124,792,1.39150725046172,-1.39254994840186,0.976445201532308,0.346433337871491,0.34758295418779,-0.0196852875775265,0.937572770386918,0.959366510908753,0.307817165326293
125,793,1.39461147486741,-1.38976978694054,0.976054101591405,0.350959233883613,0.346445831578682,-0.0205100797227124,0.822366121149732,0.892030282348082,0.107206093834486
126,794,1.39746220120036,-1.38698049574959,0.975626186922216,0.349862966138877,0.346373646421311,-0.0223293879799647,0.661304356560938,0.87254786587167,0.0343007083184828
127,795,1.40003262620739,-1.38412483190986,0.97510933516949,0.341014201373982,0.34614645815046,-0.0235167608957236,0.770046363290283,0.863913685166681,0.00797209600451211
128,796,1.40235198651522,-1.38116451859872,0.974522486087195,0.33023001212057,0.348968515448161,-0.0258279365604949,0.742614229233336,0.745891812138641,-0.0122562713259872
129,797,1.40446120184818,-1.37805317375128,0.973931860454048,0.317542006940961,0.350954659185468,-0.0285446438779449,0.727325064881977,0.685377657847646,-0.0771881017235037
130,798,1.40639140962296,-1.37476120141257,0.973320399001298,0.304982931309355,0.355391535564658,-0.0331635395945913,0.663011091810919,0.551140812367785,-0.214631534446314
131,799,1.40817701683664,-1.37126356508229,0.972676636512774,0.291030434897314,0.361889442411288,-0.0386065912776176,0.51777564845218,0.511285569589387,-0.291472763267177
132,800,1.40983697563423,-1.36754498932519,0.971993576322998,0.276960092206631,0.370703602358767,-0.0445324986662731,0.470076706815823,0.430044802996062,-0.338031469501438
133,801,1.41139702283445,-1.36359946040407,0.971269561711281,0.263448858433411,0.380781262447108,-0.0502909230431394,0.520498472940237,0.369078709032536,-0.356458383807935
134,802,1.41290186206455,-1.3594431916941,0.970501921653611,0.250819518345974,0.393563149156582,-0.0556497372839313,0.462989945605016,0.372108208551552,-0.327090410405479
135,803,1.4143764087259,-1.35508824959842,0.969685159765439,0.240566390947704,0.40681302770803,-0.0615239971414374,0.366553280405967,0.450093207542515,-0.317501647975481
136,804,1.41584177802431,-1.35054797686355,0.96881180882958,0.231355092017558,0.42093446294526,-0.0684936335549387,0.240447909457714,0.445704168256123,-0.380329485864028
137,805,1.41729358391365,-1.34586303004648,0.967879662892479,0.2216704426415,0.434413828428463,-0.0750848543204542,0.171229188988001,0.552299006991431,-0.361914554727924
138,806,1.41873713514165,-1.34108809803841,0.96690014345565,0.210922659638941,0.445957962760005,-0.0801907780856133,0.190611485246399,0.66935566074678,-0.298697185320805
139,807,1.42017083404023,-1.33629244185261,0.965875035020328,0.199927211305555,0.454265286677502,-0.0849653239382257,0.0957977016387897,0.77199383425939,-0.297097168107942
140,808,1.42162167821598,-1.3315155559031,0.964821038698579,0.189153064366007,0.45967881877602,-0.0893126330586002,0.158614929196063,0.787496709157062,-0.329829290200012
141,809,1.42310798809644,-1.32678693732711,0.963732309778087,0.178993407502637,0.463866616992741,-0.0943324570582765,0.129329899161011,0.78165494771081,-0.42903476391389
142,810,1.42468085685418,-1.32210679994351,0.962594231947814,0.172752457894487,0.468012613311753,-0.101274459789858,0.0785353501801948,0.750264994711838,-0.590120849693148
143,811,1.42635711812282,-1.31748440316266,0.961396509743341,0.169289293168794,0.470494933669206,-0.108517667420566,0.0819468548039292,0.678656704819523,-0.649480175626602
144,812,1.4281381186927,-1.31293021918327,0.960141512672074,0.167898477923234,0.472649524884028,-0.115056591315867,0.154112795832434,0.631544744896751,-0.636545056585829
145,813,1.43002416135226,-1.30842139001593,0.958811693694774,0.17041369681668,0.475009917401201,-0.12130476895914,0.292526684277515,0.668262796755585,-0.647568805593649
146,814,1.43206171585987,-1.30396374347121,0.957431118981261,0.17684569985931,0.476898496444355,-0.126608734739328,0.422754610320667,0.642018327057118,-0.606361506987957
147,815,1.43427123880289,-1.29952886987605,0.956053579407393,0.186856774266197,0.480073534669262,-0.131133745646079,0.466465111052352,0.569919577666,-0.547536349751496
148,816,1.43666191119313,-1.29510798308801,0.954678873142219,0.198546565008282,0.483130725024639,-0.13384042798415,0.290014864506567,0.596481976648148,-0.313597240876232
149,817,1.43914288507225,-1.29066521260535,0.953332886939933,0.20735566728967,0.485928918526164,-0.134040815050408,0.0033390063681751,0.700168167153169,-0.0590159711725489
150,818,1.44166799178953,-1.28620758077207,0.952062184313928,0.215248153811202,0.486169377690511,-0.130232471252497,-0.0142823252596517,0.769474272682851,0.306076447306831
151,819,1.44425095557894,-1.28177941534847,0.950902433742989,0.222613122270492,0.482857111510916,-0.11909957035526,-0.101157851383951,0.934592546529475,1.06734730214334
152,820,1.44687936099905,-1.27741032458774,0.949932911772634,0.226577345126637,0.475510336931657,-0.0976681605022962,-0.185992779646343,0.943525510574867,2.04192312923848
153,821,1.44956363741062,-1.27313786650531,0.949222228208685,0.230831083470889,0.464615431955179,-0.0693351966072957,-0.14557428127774,0.762289799912373,2.63741716190185
154,822,1.45232813479252,-1.26895104572305,0.948813962951473,0.241075638611182,0.449540658361992,-0.0388375205297691,0.0683081006602731,0.442925269194792,2.70446028340539
155,823,1.4552352526955,-1.26478059022875,0.948707973231238,0.257124519360496,0.43246511359504,-0.0114654044421148,0.320752701385826,-0.292405271029304,2.41365585231924
156,824,1.45831031215781,-1.26061509903676,0.948867829621056,0.272847480258123,0.420782331863575,0.00854469727771379,0.0967202457843677,-0.196057626834527,1.83534805009873
157,825,1.46154644635784,-1.25633758671118,0.949266426644292,0.283020715846789,0.418731466662238,0.0286051570714615,-0.119355538616987,-0.0355124489839739,1.77363903087613
158,826,1.46478475448586,-1.25183211098396,0.94977117492553,0.286743514716515,0.424669895083359,0.0472189960028746,-0.068027146871674,-0.161242148732988,1.54258010460977
159,827,1.46806420067342,-1.24688864352448,0.950488031769546,0.286926281762807,0.434906377077276,0.0604684772345577,0.0170672856556594,-0.373985040106139,0.938743101671258
160,828,1.47132338253865,-1.24154280126764,0.951306388781734,0.284103052310275,0.450749623560328,0.0694653240329903,0.183221398895572,-0.403817875679417,0.596903940646012
161,829,1.47458911034324,-1.23573861959104,0.952144651367701,0.283430426102058,0.472493863428209,0.0752519184696922,0.0251476966133537,-0.313057453005289,0.581229229280261
162,830,1.47794844776872,-1.22951407238705,0.952970079946017,0.290428273878598,0.499332428727778,0.0754089315175427,-0.0802926481142846,-0.371697254836574,0.317273051993499
163,831,1.48157507156018,-1.22298078956694,0.95375043969969,0.304954380791925,0.528537783550304,0.0720304916151751,-0.400663752236646,-0.217265805143779,0.139968855803239
164,832,1.48524772376542,-1.21690756272013,0.956501751758973,0.314992510032084,0.541229246460532,0.0799718154643168,-0.637586000011906,-0.0079252169558003,0.0375338418586327
165,833,1.48943887971604,-1.20997434645813,0.95916775626452,0.329093406385659,0.564864044800398,0.0870950078502737,-0.74891873240432,0.0344935621963662,0.0262275864355111
166,834,1.49290538072143,-1.20488268684083,0.961361013731765,0.332985161395587,0.565178852461422,0.0907909674198359,-0.967331817832697,-0.0933074140777238,-0.0290045116442636
167,835,1.49651048432999,-1.19898314048989,0.963494336175828,0.328339305949737,0.567366083369897,0.0970964430333281,-1.27171032521535,-0.0159349905895397,0.065530467329435
168,836,1.49935548019431,-1.19368227173821,0.965741055841876,0.315357363104017,0.560438726026439,0.106981559256616,-1.26196710122065,-0.0198694181237732,0.208442098747804
169,837,1.50230395667444,-1.18814957069559,0.96795300954332,0.301720808276822,0.55331127145684,0.120264725928421,-0.609787214435677,-0.247095572942121,0.289354844617035
170,838,1.50521810131204,-1.18278682345476,0.970058624876655,0.288214855389912,0.544977427296187,0.130546569893539,-0.875638802763706,-0.418432760104713,0.148607858755491
171,839,1.50808285460681,-1.17766022377678,0.971943857614997,0.279283008430236,0.535039020883177,0.135808237672693,-0.862975630126652,-0.473794304025425,0.0381526910046763
172,840,1.51093545755591,-1.17297513253869,0.973467164861266,0.274743059544946,0.518103439772331,0.133536946230686,-0.779321199754588,-0.695469892768563,-0.19016855681293
173,841,1.51372567432483,-1.16873823352972,0.974855118383082,0.269720548899912,0.49660346991522,0.128478303497724,-0.615017340010376,-0.808289734380212,-0.292417989641334
174,842,1.51643265592461,-1.16486290463136,0.975969991366413,0.265135275263618,0.469615459270166,0.121310889062077,-0.396310539842111,-1.01215733880699,-0.300230935146158
175,843,1.51909345890695,-1.1613685306135,0.976856124627736,0.262211988688618,0.436008433136095,0.111859112299356,-0.136942490023279,-1.18214435955611,-0.41617075122604
176,844,1.52175596040527,-1.15811311699857,0.97754741048289,0.258892836821703,0.409726241543305,0.102890667298276,-0.247001320134838,-1.0248169216015,-0.270792888556073
177,845,1.52443221734111,-1.15495590201916,0.978067003206625,0.254948274707247,0.387852223121351,0.0922024526655456,-0.43427493749945,-0.940083562008785,-0.35603020818169
178,846,1.52713941433435,-1.15187949197819,0.978171688041391,0.252555515405044,0.371057980233215,0.0809345787808618,-0.311700046731432,-0.979639287929187,-0.479238895776688
179,847,1.52983614541802,-1.14865487579453,0.978398278704029,0.251304386494177,0.355292857406468,0.0674303493972988,-0.185948524361191,-1.02607981374851,-0.495001779279547
180,848,1.53256703428291,-1.14539381320438,0.97848968286665,0.248468939279966,0.343669899026475,0.0515706411719138,-0.11274345133057,-0.622641819211125,-0.662600568426441
181,849,1.53521586818655,-1.14203115213577,0.978465326611079,0.244438271542996,0.335616860750712,0.0378330315282534,0.0933687216302781,-0.463797609347684,-0.721604947134696
182,850,1.53780015037265,-1.13855869784305,0.978350031578513,0.2433908896093,0.332817177017106,0.0241466572851784,0.172869189563806,-0.308506686612477,-0.865852187187723
183,851,1.54029438410839,-1.13500397195654,0.97816693503866,0.241406237171642,0.330911477657131,0.011652849989736,0.112240251435158,-0.312196720481932,-0.86429941706292
184,852,1.54273522410605,-1.13139774071234,0.977913687759656,0.241790445338169,0.330839653274386,-0.00240429841764785,0.00324911249419296,-0.175711919957202,-1.04958408395521
185,853,1.54512286456497,-1.12774630008465,0.977594729722127,0.241419021834539,0.331988166132096,-0.0165836067058819,-0.0530394471010105,-0.304599468981733,-1.12359028155123
186,854,1.54746928002902,-1.12406647429524,0.97721789743711,0.240715077320342,0.332315820163117,-0.0299729005018764,-0.1432910070309,-0.266219473307832,-1.12378622704821
187,855,1.54975274299737,-1.12037083388139,0.976795029537707,0.238283025536073,0.331002211161692,-0.0423563069144878,-0.236627723265883,-0.265334546190019,-1.16844648046189
188,856,1.55188577755983,-1.1166140420235,0.97641651451295,0.233581610614495,0.326566968454631,-0.0523493810873249,-0.166826548411974,-0.184757178316645,-1.06720937894906
189,857,1.55392577955759,-1.112963881808,0.975961983193011,0.226260840771042,0.319053650376769,-0.0594669841763989,-0.362643451049703,-0.448865672305592,-0.984917327418842
190,858,1.5557845750413,-1.10941796442282,0.975505048642251,0.218701061000319,0.313622241226612,-0.0625838098462671,-0.00268791153295889,-0.194445782903886,-0.788627973288792
191,859,1.55753730462822,-1.10595754588541,0.975070106640086,0.210381512650771,0.307097738050482,-0.064174494401409,0.0918375740280387,-0.253469584776554,-0.75688489225077
192,860,1.5592225107587,-1.10262121042005,0.974628816560453,0.203982555138492,0.300322822592334,-0.0681697599005087,0.213009672409026,-0.241729496545,-0.901986967277367
193,861,1.56088753996361,-1.09943625035692,0.974158766078978,0.199094829053041,0.292140575817819,-0.0736387958373213,0.351347202302653,-0.253945622267668,-1.05842587692644
194,862,1.56255212620385,-1.09642000702308,0.973645665459972,0.19340705596753,0.280267272914103,-0.0797481210231968,0.178527919934072,-0.274349550084057,-1.01879398319846
195,863,1.56419116044253,-1.09350755345008,0.973096596625559,0.18892937461295,0.272473368895861,-0.0842369479705598,0.332073080410444,-0.115432299308701,-0.934878824369371
196,864,1.5657926521663,-1.0906293447547,0.972510362661695,0.185852116374707,0.268078986760943,-0.0885624608447698,0.293057677786722,0.0211323809477355,-0.940984941742719
197,865,1.56732795492126,-1.08775317337856,0.971883521609789,0.183068652469603,0.263567655045717,-0.092739478225309,0.272010446723818,-0.058891766261829,-0.935603838332957
198,866,1.56876368165548,-1.08485117224524,0.971224310870415,0.177639347842099,0.259573557798679,-0.0940430438202518,0.183882194577735,-0.175476937016939,-0.677949547504154
199,867,1.57007405386535,-1.08191261670788,0.970548236296204,0.169512028128193,0.257118020177956,-0.09359886596939,0.0833918124861624,-0.223502038717013,-0.500636080824265
200,868,1.57126555485246,-1.07894076015699,0.969858278561778,0.161744705923528,0.254912214582912,-0.0926082014155167,0.121560073983997,-0.426347334372164,-0.329799757437858
201,869,1.57232286108383,-1.07599027326302,0.969145827041757,0.153013676694053,0.251441484819168,-0.0916880556527425,-0.0284152991758428,-0.415366169029304,-0.0708885236898416
202,870,1.57330099352013,-1.07304440173787,0.968397005008468,0.148320667156596,0.255255747405576,-0.0898159396362135,-0.132810201674123,-0.171864001086986,0.358093476888937
203,871,1.57421154354303,-1.07009079035545,0.967641520018193,0.144071139828353,0.262832388487617,-0.0858141655118472,-0.297840790297932,-0.174968768250869,0.737364872327808
204,872,1.57501407040958,-1.06711722650796,0.966909532681787,0.136439582180112,0.27461073287498,-0.0777253945306638,-0.174295238062962,0.0927355512652565,0.917700746897178
205,873,1.57566587348886,-1.06409447523612,0.96622366067678,0.123167565290519,0.291049671643416,-0.0669836535478789,-0.0707156342943627,0.560964662621403,0.871577469470179
206,874,1.57614842857727,-1.06101857967515,0.965590094935201,0.10526663539562,0.303129228348383,-0.0566968738880791,0.0731079367840005,0.248329451661663,0.685775232191484
207,875,1.57658326465382,-1.05808055792568,0.965855694387928,0.0893007993403363,0.307514457641891,-0.0385454682191839,0.167096669845726,-0.180892961248005,0.612234597652146
208,876,1.57742256267071,-1.05443932295801,0.966050329598702,0.0791375469559357,0.316452322750187,-0.0255595632047722,0.198817054337922,-0.479814708541391,0.552153841285609
209,877,1.5777061200855,-1.05191641199545,0.966271940757736,0.0680328906914046,0.311197702816744,-0.0167030211719408,0.241808468436994,-0.616409019880876,0.438915451080778
210,878,1.57828082100882,-1.04894570992905,0.966546316921095,0.0634069007641636,0.310728753724992,-0.00922919101477101,0.273696783243319,-0.673666431745906,0.486868633430077
211,879,1.57893176088629,-1.04617757080624,0.966866974399938,0.0651069540041731,0.309779592356672,-0.0025732208665328,0.181633634434691,-0.414600041663876,0.546532011232498
212,880,1.5799758868345,-1.04316085077055,0.967215466588413,0.0758706881171461,0.312962716772952,0.00344206262906921,0.0492570290939676,-0.322658729492927,0.563062183548456
213,881,1.58134274987227,-1.04001890677807,0.967526111788343,0.0895982486600317,0.314790244637908,0.0104453553683553,-0.039703650546603,-0.293913934811854,0.659975766262338
214,882,1.58292205667186,-1.03678664532143,0.967861803123365,0.0991964428357018,0.31236056532873,0.0201921309810347,-0.0912894334203681,-0.321739062000617,0.809376696418838
215,883,1.58462809287699,-1.03354737383474,0.968313416302858,0.106975672817928,0.307102676241985,0.030884613335685,-0.147057011951538,-0.353851623422109,0.884516366622645
216,884,1.5863001180219,-1.03039709323982,0.968732394159191,0.111923036037534,0.299861887870237,0.0412812803775073,-0.265253212742889,-0.374227023117199,0.987087985461926
217,885,1.58794542327328,-1.02737527266354,0.969256824376945,0.117228644847736,0.292081459897405,0.0513207798336224,-0.456150147833551,-0.205107153598178,1.09975373807434
218,886,1.58954598978275,-1.02447282206308,0.969798943877079,0.125224997837492,0.286545334997976,0.0595874367171359,-0.422938659745157,-0.280635009209227,1.1422868140314
219,887,1.59125521888519,-1.02168874862004,0.970335611661792,0.136769865707761,0.281643278954635,0.064332216043867,-0.395907062398454,-0.262804991147072,0.981410271234413
220,888,1.59303752308626,-1.01903668744551,0.970858584927243,0.147917261612634,0.277519870187687,0.0670325920199687,-0.35768369126027,-0.152904246509963,0.825179505018716
221,889,1.59489488902317,-1.01644065068586,0.97135556183728,0.158275503043414,0.273845350553233,0.0676191464848984,-0.374341352199805,-0.150427630313388,0.645777575249673
222,890,1.59676819770501,-1.01386660435252,0.971830947169795,0.163404521185373,0.271198976436842,0.0685805430431852,-0.300624053791343,-0.111044144929402,0.565889445240283
223,891,1.59858915774174,-1.01129343602345,0.972290931204267,0.162775356098674,0.267626715001505,0.0696473355762062,-0.277746110385483,0.00241154540369492,0.490745554566479
224,892,1.60028401552545,-1.00869032729595,0.972744562591836,0.157123414720105,0.264747237335308,0.0703786757859312,-0.292795254802163,0.0810416077010065,0.401114875463822
225,893,1.60180391602065,-1.00600641848041,0.973201833276465,0.147479097267564,0.263817031888108,0.0708847239131276,-0.263612386496588,0.126360597116619,0.323238329540705
226,894,1.60313485055105,-1.00316467464784,0.973662649889663,0.136714781232508,0.266545113734018,0.0706848432580758,-0.177292457881773,0.0866916164370687,0.242505436849568
227,895,1.60432097399467,-1.0001260494108,0.974109599571531,0.128027948713198,0.272611123100885,0.0684737046394827,-0.102966928025665,-0.0280140292121197,0.117668776370734
228,896,1.60542374503497,-0.996873617153853,0.974518972595454,0.1232661780756,0.282538730941677,0.0643898277326725,0.00187649205082449,-0.096882388055626,0.00819716235278941
229,897,1.60651037867361,-0.993415918031339,0.974863423631755,0.122363744521915,0.296482597428666,0.0576052331144911,-0.0202309295320254,-0.11794316583816,-0.160545582114482
230,898,1.60758018025937,-0.98982842214906,0.975128802081496,0.122177882619469,0.312013831911775,0.0491153928757437,0.027609360291981,-0.182242416785105,-0.304200144001642
231,899,1.60861406978912,-0.986191961989172,0.975308923629553,0.123835504444361,0.326076995424173,0.039038665169888,0.0957213524223406,-0.133262974018027,-0.435823662742273
232,900,1.60950212908815,-0.982515621672192,0.975384077394693,0.122702301405828,0.338004671837265,0.02696660364337,0.0404839379346563,-0.032674599292921,-0.626148878165121
233,901,1.61014722071575,-0.978870912299586,0.975304580404933,0.116523144025504,0.350939333729848,0.012820621873549,-0.162088351676095,-0.147897677258742,-0.795284213409444
234,902,1.61053851845288,-0.975123988604888,0.97512974399841,0.106687964599442,0.361651054717285,-0.00142383767474385,-0.204077238459923,-0.0806474404483763,-0.975161614490889
235,903,1.61081710062228,-0.971361328290385,0.974851253336783,0.0935669926342487,0.368244625854874,-0.0141490594192288,-0.263350334982804,-0.0981004746784686,-1.06064565374247
236,904,1.61191736635749,-0.968205475124594,0.974573671137138,0.0961757101604277,0.365841752755182,-0.0276950258758279,0.0133748119201067,-0.343480429183931,-1.02297055658812
237,905,1.61416426976871,-0.965560361033878,0.97431349216145,0.1204491055174,0.352446363879986,-0.0391151948259394,0.0441270191153693,-0.491100389465581,-1.01936425275664
238,906,1.61730801524869,-0.963161713747594,0.97403516195971,0.150542158250657,0.33720444234712,-0.0494235591966315,-0.0780932662067587,-0.0700442749202142,-1.16676500539473
239,907,1.62071782155832,-0.960683776130682,0.973705416499744,0.184316678907613,0.330217734629185,-0.057765428146536,-0.101498910955233,0.628231088569963,-0.970919909661808
240,908,1.62408143357949,-0.957976235233155,0.973349373119107,0.215909816003038,0.328403426968531,-0.0607323367133178,0.0271252775246534,0.982298138749738,-0.435375973101681
241,909,1.62741393101809,-0.955053859880924,0.973021540549716,0.240531999398034,0.332194987660471,-0.0596327061525376,0.0310741438800549,1.20660167336537,-0.125260765470753
242,910,1.63066277379675,-0.951936400547941,0.972705011659084,0.263493903614634,0.338638693743067,-0.0570758049278024,-0.189131863063824,1.31559135501309,0.0920395121784006
243,911,1.6339086706045,-0.948758553581264,0.97242156352122,0.280731911058678,0.341004540465462,-0.048810969988634,-0.139148070722418,1.39676672009414,0.591605749998571
244,912,1.63708926533094,-0.945579246851104,0.972241298043531,0.291043011850063,0.334347609577459,-0.0366393724407527,0.257917720206962,1.19381565053941,0.896976908616217
245,913,1.64016971338608,-0.942619495392713,0.972105737010034,0.291731046786023,0.322774481004312,-0.0224688006080923,0.432093820742338,0.956920847113991,0.96231698718396
246,914,1.64317451135593,-0.939807297676806,0.972041585888902,0.293027679785863,0.312663863236942,-0.00895656655564743,0.628147853077474,0.756919410588506,0.943713175620576
247,915,1.64610247367239,-0.937102895892285,0.972021643823987,0.291425543396551,0.305492561881755,0.00110776588964939,0.460914930690617,0.64646269142366,0.730740835534242
248,916,1.64892223657959,-0.93443993195576,0.972008242962254,0.288815975605588,0.300887212201261,0.00768762083037268,0.462779138592893,0.519227302375494,0.54302833986227
249,917,1.65164626651005,-0.931740547055917,0.971959830534564,0.287053670008058,0.301235921974216,0.00913020143038232,0.323964236269928,0.347689992984502,0.261791669263186
250,918,1.65428652939033,-0.928899339649458,0.971876693643485,0.284513501444395,0.305507270456032,0.00716939378003648,0.244526135622112,0.357479991905396,0.0496901623770544
251,919,1.65678954714204,-0.925867117099554,0.971681114253191,0.283822042813585,0.312987059282505,0.00297459151019553,0.34126237920581,0.247975538629774,-0.12736272645574
252,920,1.65918949765067,-0.922581040754736,0.971399099294268,0.283110178224363,0.322813021690931,-0.0028251876072011,0.31299836199719,0.185744359873989,-0.229235256172293
253,921,1.66147450691564,-0.919015771917348,0.97103051868709,0.280298336768773,0.334054667933974,-0.00932519924477208,0.382424740177567,0.10214788164195,-0.312801461676602
254,922,1.66364016373654,-0.91517612901627,0.970571836121822,0.275986966388038,0.346395347050309,-0.0165451487504323,0.382824112261822,0.0290563672906549,-0.37222229925192
255,923,1.6656679900797,-0.911074111589928,0.970030896241112,0.26858152744862,0.358856922802767,-0.0235049811210708,0.425680597135852,0.0550661536951183,-0.375410120897838
256,924,1.66756739849205,-0.906719105621238,0.969411773282154,0.260063667681003,0.373259414245633,-0.0301209517908241,0.381658391957605,0.130649644871001,-0.327146079891342
257,925,1.6693571923436,-0.90212049942276,0.968720886653338,0.251359512943784,0.390321234598177,-0.0373080283548467,0.286457253443587,0.20198831556262,-0.35927758771987
258,926,1.6710619921536,-0.897301671176631,0.967962556151869,0.242845772945303,0.408087486358482,-0.0440781421916239,0.237553608402688,0.216928701830214,-0.32117364007748
259,927,1.67268432171216,-0.892345020098334,0.967134570220304,0.233808015320906,0.424833468354966,-0.050812136389855,0.256912183457848,0.31467706378333,-0.348014460992469
260,928,1.67424754999795,-0.887280512049439,0.966261866194191,0.224297047430503,0.439998567985323,-0.0571618697146509,0.289742934691786,0.467431925302224,-0.328597867486264
261,929,1.67575613370653,-0.882164933654608,0.965423172749579,0.213048765563149,0.452816647351985,-0.0620846173302145,0.271100397059135,0.642968280002519,-0.332096722345623
262,930,1.6772203281432,-0.877032977897297,0.964514781620171,0.20125244951472,0.46460002293358,-0.0681436363242376,0.174454062612346,0.82666081393759,-0.430468535909044
263,931,1.67869304614691,-0.871918454440745,0.963532816500039,0.192150108493107,0.474874507649098,-0.0759377027605584,0.130899038281279,0.915117730899465,-0.549096543914361
264,932,1.68017823133465,-0.86685175502714,0.962466050131861,0.183091577428033,0.48381189863352,-0.0847201470762269,0.12438991344398,0.947543362980387,-0.636686434985039
265,933,1.6817102548654,-0.861847956426154,0.961310237799881,0.175045689530653,0.49116615298407,-0.095161186749172,0.0358141400364251,0.922747279508388,-0.788426259878496
266,934,1.68332203215947,-0.856921939193985,0.960221544390702,0.169428805951656,0.497697032502706,-0.106486749320712,-0.0795981769460071,0.889372891876079,-0.986134354270962
267,935,1.68503729566725,-0.852091280832958,0.959096644701286,0.16584944672901,0.502214430546383,-0.117805604106274,-0.120716833927894,0.838647449921241,-1.08323999817075
268,936,1.68688857196645,-0.847379371904591,0.957916343863908,0.165841286689406,0.50444162657315,-0.128265773306795,-0.0384439344577244,0.74027050255835,-1.09351099167214
269,937,1.68891483608475,-0.84277370589234,0.956688858583705,0.170182324832614,0.505869480428329,-0.137741127640762,-0.0717296161845036,0.6610040582333,-1.03395991191168
270,938,1.69115304221029,-0.838289279836261,0.955435329933706,0.179500237025626,0.503003219863276,-0.145198149596701,-0.0141755745156427,0.491958796089936,-0.870598203693094
271,939,1.69353608552649,-0.83384972943946,0.954195571741582,0.190828976208618,0.498908879573418,-0.148132418861191,0.0894946112230914,0.539580594281628,-0.546502156079395
272,940,1.69618089535679,-0.829550997601421,0.953007364775843,0.20455099959536,0.495916382526917,-0.147197865880707,0.0576033982563493,0.620479506951834,-0.208709016027215
273,941,1.69901933891758,-0.825252385177802,0.951931744165986,0.217436847389642,0.494677148494895,-0.135921718891401,-0.122147967513575,0.776622146631522,0.731101288680933
274,942,1.70202622399603,-0.820976065860317,0.951075032588527,0.230548859618866,0.488500325885853,-0.115366729950094,-0.0599403881253413,0.812927048686124,1.59993718457348
275,943,1.70508965324333,-0.816748537949598,0.950499005662232,0.243503101977909,0.474554069561908,-0.0843282507441281,0.415366102987296,0.431132583151141,2.53183661274337
276,944,1.70819727160948,-0.812586763893966,0.950242895480215,0.260887801847867,0.457134349755021,-0.0490079874226165,0.922716246390991,0.0980802986945642,2.94547952789089
277,945,1.71149491307762,-0.808460987196828,0.950361673211001,0.282368229198697,0.441146166648814,-0.0147988912592295,0.952338881997607,-0.196053262944152,2.84150931976799
278,946,1.71488008943419,-0.804306883200099,0.950732859561816,0.301099774910472,0.429245778286377,0.0107784713546323,0.506725843863529,-0.354166739935997,2.16505911063303
279,947,1.71828942009035,-0.800102664643046,0.951305200284774,0.311847897460602,0.424061253070015,0.0314259672132556,0.0163904524423912,-0.0977920311798317,1.7458290372897
280,948,1.72160321703973,-0.795699870147922,0.952029443017684,0.313808078306524,0.42404597919776,0.0500172204773408,-0.0621721150640017,0.0487658074668466,1.45779133791821
281,949,1.72484036052476,-0.790942153478342,0.952870356587726,0.313149875729094,0.431179613392926,0.0670833283171853,0.183912370402131,-0.166624033074464,1.29592452529841
282,950,1.72808834117076,-0.785700365192701,0.953766816842245,0.31266888583209,0.445270625658324,0.0790741562829794,0.287314130837125,-0.327075126056234,0.95309579090112
283,951,1.73146567899568,-0.779886180396719,0.954631634680804,0.316897122870766,0.470341732457001,0.0850768634741427,0.208954527217192,-0.335433329186074,0.683119707135611
284,952,1.73508220865666,-0.773510228543085,0.95540508002567,0.327058350443043,0.501782197689783,0.0860459302328702,0.0495531648443763,-0.235989233407285,0.500311438988452
285,953,1.73903966841511,-0.766650954159475,0.956066466849091,0.34331113500134,0.537961246944307,0.0840642840770156,-0.0914293811337648,-0.130542088832888,0.445791794981621
286,954,1.74337634755127,-0.759536447504122,0.956649254272471,0.364439231584664,0.572881336840112,0.081757376531587,-0.239978280713697,-0.00499505525026293,0.501625184207529
287,955,1.74795444842072,-0.752450762246589,0.957201244066556,0.382667939395524,0.600008473225333,0.0808743620755213,-0.363340967988137,0.079059435735404,0.571846712900398
288,956,1.75205533535286,-0.746106229891645,0.957754968420416,0.382795518384759,0.603335371608707,0.0784329056653473,-0.2845336367511,-0.0897962770258548,0.386768299323584
289,957,1.75689428201555,-0.739137848456015,0.958494193202052,0.38678026198368,0.608640930179713,0.0742400246958407,-0.519835216410251,-0.287814314022765,0.0250712489069215
290,958,1.76017016722884,-0.734131986781379,0.961888812101721,0.366954505469026,0.591359693852278,0.0865707184152223,-1.12560351788163,-0.139628819242293,-0.115765729053005
291,959,1.76359058957337,-0.728979673939664,0.964564310770341,0.345440621951173,0.572391737926959,0.0964310499090066,-1.4365525652888,-0.0842810134158919,-0.128049890900222
292,960,1.76652310848103,-0.724267817926203,0.966988182184002,0.324331963996634,0.549106535431597,0.10486445862292,-1.0476655606635,-0.354555253548193,-0.152982244181788
293,961,1.76972308100238,-0.719398580439065,0.969236768139855,0.315231989542222,0.532400033665167,0.111429792018074,-0.756651689151521,-0.501873055137136,-0.131675126786755
294,962,1.77317453468518,-0.714656593528029,0.97126335362118,0.315462489931598,0.518520959362691,0.11399535242639,-0.813345783016571,-0.578476538216965,-0.222269103075107
295,963,1.77688217502067,-0.710061712372755,0.973016481935567,0.320268292029969,0.505851787180631,0.112906620735693,-0.784328050535313,-0.747950724544896,-0.337140002368291
296,964,1.78067823183722,-0.705701997252268,0.974475029340664,0.325334338878782,0.488438685759726,0.107930180881759,-0.805244654796936,-0.817959853468884,-0.504385887512371
297,965,1.78445369786477,-0.701511469489749,0.975664969162033,0.330259758718815,0.465189071071851,0.101626195640735,-0.416949921388034,-0.942334852754688,-0.541450059380231
298,966,1.78836203098511,-0.697529853674662,0.976448251851803,0.334991544047664,0.447255394214762,0.0964158747518519,0.0735410262017087,-1.02245164710159,-0.391569988926677
299,967,1.79209206300298,-0.693516626798935,0.977159916344174,0.337940414042381,0.432690750958985,0.0864488431534724,-0.361427881804287,-1.02370801242193,-0.385940591121243
300,968,1.79570881550923,-0.689540815506595,0.977690914218297,0.338073002233157,0.421282222391833,0.0743678550767806,-0.27545597979271,-0.765324461703767,-0.325254385037512
301,969,1.79918255967186,-0.685556959546008,0.978058637163329,0.33269005166221,0.410379991183339,0.0634245075014704,-0.214661947223244,-0.654212648681262,-0.299281336619567
302,970,1.80248914298138,-0.681568873026543,0.978311548906197,0.325138924480999,0.401847754802879,0.0548748628527682,-0.011899593648965,-0.425259782734827,-0.296080491876389
303,971,1.80569767510072,-0.67752850551881,0.97847949860694,0.31885934493288,0.397753103105815,0.0469592150812579,0.0555851882753466,-0.244636432650199,-0.327906460327052
304,972,1.80897008688976,-0.673449849615652,0.978549715195987,0.298470178090656,0.399839308133481,0.0316969638759759,-2.18275177032094,0.561913953501223,-0.913488492546303
305,973,1.81209133577973,-0.669253122005851,0.978525646147203,0.307658943218016,0.40042773016053,0.0232661206595259,0.829513301464575,0.0414236527226209,-0.506245433650369
306,974,1.81524542339552,-0.664980469405916,0.978464123375988,0.314282265008406,0.398785242304515,0.0203912058898118,0.866272730054661,-0.633826094330488,-0.103645242896774
307,975,1.8184719260497,-0.660756215615816,0.97836489590478,0.315622343089204,0.400023653201368,0.0103616076954097,0.0248452956950666,0.0712141773885843,-0.71622480804091
308,976,1.82161458211573,-0.656445405811488,0.978185265363294,0.317354290407186,0.400765068510124,-0.000927016501790554,-0.00885403796102716,-0.22700572429395,-0.761352128230609
309,977,1.82468301396392,-0.652087367024709,0.977935949416648,0.318596353725462,0.40005428582212,-0.0115567471463367,0.073823042620851,-0.406550431979864,-0.801088860617704
310,978,1.82767116098781,-0.647704575194706,0.977631180024901,0.318551450110377,0.396785687570302,-0.0209889028121753,0.111656613678701,-0.643999544222644,-0.794223701691034
311,979,1.83060660921792,-0.643344926869004,0.9772739909263,0.317922784137772,0.391438149349639,-0.0313310264281714,0.0142776430653897,-0.691377471976866,-0.915388525265592
312,980,1.83348266624523,-0.639044443982042,0.976860793535596,0.314520899454185,0.384597332464285,-0.0419725294588721,-0.0973707073679645,-0.660267098412042,-1.01832156735656
313,981,1.83628442734171,-0.634856626600842,0.976391617112248,0.309752437168819,0.376532665568965,-0.0516971074796901,-0.210611107255907,-0.531920197028291,-0.996884094286473
314,982,1.8389635003801,-0.630793273745119,0.975877989347545,0.30209415328764,0.371128439742559,-0.0606137774977035,-0.18526401565895,-0.107982004893605,-1.04180035094419
315,983,1.84146605421829,-0.626853989742522,0.975336677437882,0.291550265114447,0.363749705106131,-0.0667282492411684,0.00309386615990714,-0.0990620503652442,-0.944508612012031
316,984,1.84377730826913,-0.623047022872846,0.974786781566523,0.27846971371099,0.354755450059595,-0.0722833445943014,0.221339441480456,-0.169392030538334,-1.06226694899759
317,985,1.84596941789611,-0.619398784422566,0.9742006374516,0.269218026604668,0.342564373074876,-0.0808100778632244,0.572086079509006,-0.459650746651969,-1.3157831333693
318,986,1.84808768976479,-0.615977085514815,0.973548373709501,0.259948524144921,0.329025594132614,-0.0891031176484057,0.310310364061565,-0.425156939796116,-1.14097926859396
319,987,1.85010910203043,-0.612748101951522,0.972853672370604,0.251259068265518,0.31458926398849,-0.0962345729822255,0.322338035965011,-0.584220480041833,-0.987083088667614
320,988,1.85202862752055,-0.609706548655322,0.972133089383693,0.241670556130286,0.301457210435314,-0.101707434750197,0.382700660164384,-0.51282863965868,-0.934540951773667
321,989,1.85387633258555,-0.606765004214531,0.971380396555571,0.23578321720747,0.292446577079149,-0.106895705209662,0.466723127742356,-0.43452822377539,-1.05783035223177
322,990,1.85561781330768,-0.603849181218429,0.970599920946466,0.227052637006455,0.286095960554284,-0.108680015797404,0.413129757466249,-0.358315175109219,-0.866821313264594
323,991,1.85725579592156,-0.600910121613033,0.969810123884533,0.21748908503531,0.279972564400885,-0.108119568739844,0.309672561211455,-0.408362954971273,-0.642924907080744
324,992,1.85881485819913,-0.597951798243039,0.969010176413776,0.206618351112181,0.273850602490869,-0.106848112328528,0.0829447132718216,-0.415477034214706,-0.432745740401238
325,993,1.86030340231634,-0.594999362563014,0.968205554398323,0.196976907868135,0.265754890077098,-0.103931156766688,0.136076316740938,-0.495429554492609,-0.0233278064670632
326,994,1.86144660648645,-0.592191277453374,0.967289077411378,0.194807451765995,0.265538141367438,-0.0995838654483867,0.0670660184021594,-0.13353962020188,0.595521470998878
327,995,1.86301954506244,-0.589067652533875,0.966511576512059,0.190581850956198,0.274236943301184,-0.0900231911557396,0.218901157370969,-0.559256472964181,0.994007200042299
328,996,1.8646022024604,-0.585918032357248,0.965757550006753,0.18477957745955,0.295310096412062,-0.079972656433124,0.39285932609729,0.668053318819797,0.901840903006065
329,997,1.86597689678813,-0.582751415565221,0.965410831499768,0.173363280685871,0.311898492069282,-0.0607076363183021,0.51499756782637,0.737921883193983,1.10188995544364
330,998,1.86813233192279,-0.578270872483446,0.964945138912739,0.171524932109052,0.341179923266741,-0.0455835388530993,0.385042784132392,0.45528914810863,0.94682520821787
331,999,1.86937795739694,-0.574956345260761,0.964569655318524,0.161343853036489,0.35140852028378,-0.0326657979510674,0.297663705363062,-0.0642589623871502,0.78839087065854
332,1000,1.8707353794372,-0.571390375442914,0.964381646089895,0.153323552664101,0.357180099815606,-0.0212001940961786,0.213171415203926,-0.487925873492072,0.676954812735012
333,1001,1.87205857300474,-0.567880845137232,0.964320719113216,0.146446893912024,0.357905074685592,-0.0112879646789094,0.2688563825532,-0.642785833084861,0.671935172245277
334,1002,1.87348605118373,-0.564370805875041,0.964455277977082,0.143633638830892,0.359005526722075,-0.00183495857078741,0.189693658924077,-0.69266470130175,0.736026363556521
335,1003,1.87508294008253,-0.560743569340416,0.964782125613138,0.14650600156011,0.361033264167254,0.00667089424010763,-0.0812056980243616,-0.527920744985535,0.774907787340235
336,1004,1.87691811220888,-0.556966135799194,0.965176806583144,0.154088799307707,0.363540870447299,0.0158301869819762,-0.20616509944521,-0.223033737230876,0.829885539755341
337,1005,1.87896055566845,-0.553063600598892,0.96541909629823,0.164919994059356,0.366047152317673,0.0242848047250181,-0.229775534460687,-0.0948213306276151,0.858431270640575
338,1006,1.88114231262651,-0.549147304218549,0.965857578624068,0.174193549472346,0.363536903501281,0.0357628071592805,-0.259509571476778,-0.148690738217762,1.03564937422164
339,1007,1.88345727480321,-0.545354102137417,0.966442959361274,0.181598855931425,0.354218873066192,0.0504680578625371,-0.136819276523378,-0.226753845757315,1.25309550723071
340,1008,1.88582761880009,-0.54171690333497,0.966809464285218,0.189780283817776,0.342215577400073,0.062615167076906,-0.133122280171008,-0.344212035952349,1.27128787132645
341,1009,1.88830066447327,-0.538166692178806,0.967201218506873,0.198482704588648,0.330705581047094,0.0709913340507931,-0.142021427245758,-0.203071127602254,1.17570858283608
342,1010,1.89068724405154,-0.534896065616925,0.967792336411089,0.207801490338346,0.32202977277658,0.07649257696374,-0.28870123650492,-0.348743709151965,0.996137874532737
343,1011,1.89315133779903,-0.531796693877028,0.968465689149207,0.218668882178738,0.315728252077579,0.0794614066845852,-0.168852981420251,-0.243893422011054,0.790618452320001
344,1012,1.89568440604173,-0.528824894266471,0.969120094347441,0.225814031591869,0.30863946224358,0.0801557852647039,-0.234605180777427,-0.194311809596302,0.546047064352431
345,1013,1.89823540744734,-0.525953120256158,0.969759374821415,0.227939974008621,0.302752293584828,0.0803368108622209,-0.282224833741094,-0.146565722512995,0.398074042803853
346,1014,1.90070423558084,-0.523103087770964,0.970390959639718,0.224171613897802,0.298697608114884,0.0804168749971369,-0.349483246352554,-0.0293911647000309,0.29227083581514
347,1015,1.9030116912835,-0.520165854946704,0.971037608257128,0.216913060706246,0.298668997386471,0.0787176553597783,-0.548802936199541,0.0126514221012129,0.129115417230811
348,1016,1.90513978314971,-0.517103166295374,0.971742387451658,0.207709955271321,0.302386212811726,0.0759762438092009,-0.52586333939842,0.0345480070638562,-0.00166734930420015
349,1017,1.90702079426508,-0.513781140699131,0.972380774139237,0.196736348640446,0.312099316824473,0.0707423902461721,-0.347083432990156,0.0615917021866076,-0.196987183800048
350,1018,1.90871968133792,-0.510326828783386,0.972936418209196,0.187532380841049,0.323925691884378,0.0616920129260759,-0.158469489030814,-0.00962430114033939,-0.483301716844208
351,1019,1.91019815457073,-0.506850258074489,0.973415178893932,0.176247609422586,0.334686332928979,0.0511152914119944,0.0409369500920926,-0.0644845674349141,-0.709438472519779
352,1020,1.91136135936347,-0.503389596655271,0.973806347246027,0.161920738438422,0.344219729546833,0.0392470912080163,-0.0161455354032944,-0.0107985557509659,-0.873992273728691
353,1021,1.9122495567157,-0.5001034298326,0.974085200759023,0.147247678045075,0.353405309840358,0.0258941636973243,-0.128189382152415,-0.0112210722243999,-1.13414957473981
354,1022,1.91309360766836,-0.496642289970414,0.974309852059868,0.138803643294997,0.362791532091048,0.0107115483340775,-0.100366960946396,-0.0535112769898006,-1.33429382215265
355,1023,1.91462952197304,-0.493410502227795,0.974448871676506,0.146509175210768,0.363249852834219,-0.00324909000518173,-0.169819474203069,-0.357687979306507,-1.24337093996097
356,1024,1.91729367926397,-0.490665784468973,0.97455660720295,0.171242485877634,0.354872890526802,-0.0178810286044537,-0.246189532679079,-0.590462411730935,-1.25992149734897
357,1025,1.92079654182015,-0.488170806836855,0.974627362336895,0.207015020323718,0.341203487145983,-0.0335693393089918,-0.18496226050411,-0.76695221306005,-1.42232088341934
358,1026,1.92461911014403,-0.485627720388837,0.974611241584927,0.238333771121657,0.328606289938345,-0.0462812394153986,-0.360852334559004,-0.310180651818595,-1.38811725578441
359,1027,1.92843235216628,-0.482880723283587,0.974519277749117,0.260932792856417,0.323319792178709,-0.0529644537911643,-0.420579798803616,0.397610552863353,-0.966925746761033
360,1028,1.93213637361958,-0.479840164155324,0.974383896788571,0.281396076477768,0.323932698931199,-0.0549135849453976,-0.278983996866334,0.632686080589791,-0.494203331490972
361,1029,1.93572573763961,-0.476570685392669,0.974268211847734,0.297507499446096,0.32661168931239,-0.0520885796851205,-0.0170445985348532,0.765030878106697,-0.116197943518373
362,1030,1.93925620811142,-0.473164358647662,0.974195622456207,0.310977761700744,0.329760964834096,-0.0428530330647619,0.126270983575022,0.979647940926267,0.482461453562183
363,1031,1.9427896036934,-0.469723625099068,0.97419952197143,0.32454308177853,0.331922043941773,-0.0294629662906854,0.242160523966814,1.14464509968001,0.93056456338748
364,1032,1.94636246761166,-0.466320287134457,0.974293449063326,0.336090364548453,0.331533665890218,-0.0143311278849147,0.299792256150885,1.08823470290479,1.12911021836015
365,1033,1.94997465737851,-0.463000637529884,0.974459379617458,0.345526889311988,0.329759340778669,-0.000308090057198062,0.368057860628218,0.884262718863367,1.10354833436828
366,1034,1.953614359075,-0.459774312406051,0.974661868616824,0.351891716922462,0.329530644522138,0.0113398365262461,0.445245844481913,0.803552751913675,0.951753666262059
367,1035,1.95727902135124,-0.456629268811722,0.974867149860439,0.355233857147772,0.329988708005631,0.0199562143350392,0.342960069129393,0.658622565264854,0.745929094194197
368,1036,1.96096201740595,-0.453525815007069,0.975090661225219,0.357540841636757,0.332421617588303,0.0263659363977077,0.220818899239753,0.589443608485867,0.590159044166578
369,1037,1.96462683557278,-0.45040864180941,0.975278050538062,0.359953633045706,0.336356856523331,0.0294813039546989,0.167780705687898,0.465395340123828,0.364587573266111
370,1038,1.96820625858909,-0.447205027480644,0.975391015359391,0.360285184236014,0.341408923243782,0.0299729699522141,0.199431505973193,0.419973688731967,0.18833884128447
371,1039,1.9716628909709,-0.4438730585281,0.975402446786809,0.358791684883239,0.346427598277971,0.0283247674821962,0.221940990482439,0.420566166122111,0.0961819834533786
372,1040,1.97495167560407,-0.440360430773935,0.975305416070261,0.355217432140105,0.351301473752408,0.0250725473784793,0.300002762189386,0.33581621187383,0.0309401475181521
373,1041,1.97807387356631,-0.4366562838811,0.975094410244032,0.351109149969876,0.356777855457359,0.0186827821127712,0.306996999698498,0.220802953388796,-0.16787903035762
374,1042,1.98102984355951,-0.432789100322926,0.97476874994764,0.345834976520064,0.361541748321561,0.0102381904936181,0.215575028514696,0.140852729763282,-0.333762650152237
375,1043,1.98380147092346,-0.428750975257709,0.974335435467044,0.337336797751741,0.36830543636169,0.00192763257436254,0.267203218016245,0.0391767099889452,-0.361589336218989
376,1044,1.98638517520541,-0.424540469406385,0.973808999269604,0.326346392408613,0.377229737606993,-0.00699659443499294,0.313469932509392,-0.00228071777272995,-0.438465471548473
377,1045,1.98880327158481,-0.420135818787578,0.973198657053657,0.315045259999129,0.389071879234914,-0.0164234141964179,0.302616808687128,0.083959522380482,-0.497981068526191
378,1046,1.99107761064012,-0.415490198895341,0.972509335775234,0.304280510008904,0.405474876904178,-0.0263885918717493,0.222372390908583,0.177066637508831,-0.520764470721625
379,1047,1.99318628042975,-0.410637633841617,0.971743562549162,0.292222874893624,0.423565715247825,-0.0349246841957138,0.24225126369177,0.371312122335508,-0.447808181161261
380,1048,1.99517602372107,-0.405616536262312,0.970948756712828,0.280285826121518,0.440724540071481,-0.0423519282405078,0.287216093512955,0.556960865136398,-0.368649617372196
381,1049,1.9970995642777,-0.400431165734968,0.970114113992345,0.270204314318311,0.45917038500861,-0.0505851788713558,0.126641469682129,0.679706859140726,-0.394818511276601
382,1050,1.99898832073237,-0.395157189586239,0.969242953182124,0.26026290334517,0.473945340925739,-0.0585572618609266,0.00636859051766866,0.825879505871154,-0.433406122953746
383,1051,2.00083377718202,-0.389864026014206,0.968347744670235,0.247286547386979,0.484814001066307,-0.0644588860800806,0.1196439925401,0.871741817649022,-0.376979718155487
384,1052,2.00267281747637,-0.384577124505948,0.967439052949412,0.237186169997066,0.494049211236175,-0.0692604698172679,0.339447772331128,0.930200467775865,-0.43152113302779
385,1053,2.00452887740563,-0.379335050701531,0.96649884997851,0.227575259135337,0.500499359274042,-0.0762203029051768,0.35717684818836,0.751605139979407,-0.530380318909376
386,1054,2.00644102420443,-0.374158024615804,0.965513882208823,0.220456755523916,0.506032936798239,-0.0846153889381738,0.236851891399427,0.849998469923905,-0.676047853850476
387,1055,2.0084402085159,-0.369061033323788,0.964472370890957,0.214725699275005,0.511152990975624,-0.0941433877268762,0.080801710607515,0.80648191382692,-0.787063612595015
388,1056,2.0105756735493,-0.364084969409074,0.963370543750593,0.211454452084407,0.514423654450881,-0.103944100088851,0.0495371424712384,0.742133264652242,-0.861234018090346
389,1057,2.01289335411851,-0.359248415166963,0.962208079520959,0.211970129640005,0.515597577252709,-0.113705173276496,0.0137299146129336,0.620232953771876,-0.880928511167419
390,1058,2.01537698089388,-0.354554844071009,0.961003749625337,0.213827301200975,0.514743445272792,-0.120983353778551,0.12352727411228,0.483789865786665,-0.788238796601751
391,1059,2.01805701301791,-0.350004363954137,0.959770655540589,0.22115591405643,0.510755287971985,-0.127749454000088,0.0697560101368365,0.423142266750181,-0.760704437098592
392,1060,2.02092166177544,-0.345558524842066,0.958529610529651,0.231460222867195,0.506919441817881,-0.132891715069558,0.114005713255619,0.276133457845634,-0.686746290237721
393,1061,2.02395241387806,-0.34120310697703,0.957292629905327,0.242582424772706,0.501126397702087,-0.134729190450297,0.0744360815228482,0.298781706156324,-0.423031760970787
394,1062,2.02713902037716,-0.336874572032153,0.956115714158854,0.255555513523146,0.497313196777364,-0.130374711086897,0.11613917020836,0.374638207668963,0.135628280827135
395,1063,2.03045540997254,-0.332527146959034,0.955046193940691,0.270261683688032,0.493330798546897,-0.123829810902916,0.185369588449434,0.553695322255636,0.450125125753577
396,1064,2.03388951720773,-0.328175233213312,0.954101164879938,0.283390479998064,0.487114327414972,-0.110352976432463,0.148414995260638,0.544649395617251,1.12073363145046
397,1065,2.03742560535785,-0.323840867738108,0.953341706372087,0.295997696714972,0.480268797410052,-0.0888145840011718,0.112681949079638,0.857909740918381,1.961995799514
398,1066,2.04096686749,-0.319617895877041,0.952943725136132,0.305826801749847,0.468777876126443,-0.0607045013372036,0.0105639403751311,0.734253271029251,2.49972349002064
399,1067,2.04454251785779,-0.315522767419301,0.952953055702756,0.316736292289092,0.451782061140444,-0.030918189726891,0.254302350693653,0.418715910698486,2.45467500852354
400,1068,2.04813436320399,-0.311552144413744,0.953271845443077,0.32793987620234,0.432863127661337,-0.00157696531062518,0.393307798418682,-0.0298224241752764,2.27001510627548
401,1069,2.05182936437306,-0.307602610726261,0.953807324100152,0.3417412480448,0.418303676736293,0.0179953097376981,0.253945865368774,-0.513653769960674,1.52709234777447
402,1070,2.05558651462852,-0.303568408202277,0.954442387292528,0.352412591496148,0.413236373070921,0.0303559519154018,0.0478207639675247,-0.451535893476812,0.960993401370711
403,1071,2.05935918379893,-0.299362301646703,0.955144564787871,0.356957195196069,0.41536805976096,0.0421081047355289,0.200639140600438,-0.243997244055226,0.822036159584641
404,1072,2.06313019069352,-0.294869637621859,0.955900873397549,0.354736555694381,0.42391782899347,0.0537780967937305,0.109910987539733,-0.256014323670471,0.770406276982067
405,1073,2.06694537727616,-0.289993729742719,0.956691893687185,0.352877058255421,0.437012262972206,0.0628926943083389,0.17627796851191,-0.361585108112201,0.625543936368078
406,1074,2.07092638667822,-0.284640317825251,0.957463926431642,0.358259434395508,0.456429682259265,0.0691544687197725,0.148544185866004,-0.485578104765042,0.615726072667399
407,1075,2.07519635854429,-0.278770502961254,0.958164552951826,0.374625318794068,0.48097422938097,0.0703073353459924,0.12548519215256,-0.675137143008074,0.471220131015278
408,1076,2.07909028790124,-0.272631690751615,0.959016192700354,0.379183029398666,0.502574839896708,0.0744975904610548,0.0195929451240268,-0.615606073775256,0.620425256644923
409,1077,2.08363886052981,-0.266242312866504,0.959635245014056,0.390322283711794,0.520825632485555,0.0786642226302577,-0.127080810919792,-0.499644658558263,0.827779676520752
410,1078,2.08823452892311,-0.25975786306767,0.960330844568153,0.394216044365261,0.535714136059787,0.0858281269233173,-0.375767325802029,-0.293726845114546,0.9791770996915
411,1079,2.0929412649473,-0.253453812443774,0.960968324657983,0.398534470767508,0.542970573656706,0.0894829965977653,-0.706122705055761,-0.308144859000701,0.912741028448391
412,1080,2.09568652267367,-0.247382578830857,0.961840932650842,0.383063723429711,0.543764990569989,0.0957505408357539,-0.887398398452504,-0.454243771542933,0.893643582317151
413,1081,2.10025491395165,-0.242089897030743,0.962792514131825,0.381003025073293,0.532689274296727,0.102306755774741,-0.987695947612173,-0.444838645335312,0.912291070965214
414,1082,2.10342931440014,-0.237000962929006,0.965421539795551,0.366114456722201,0.517472829615187,0.116729855426625,-0.965084742708777,-0.504978827825507,0.798935507114062
415,1083,2.10665606803487,-0.232601441291762,0.967752123453367,0.349446134590518,0.495333413187797,0.126768477284438,-0.983948445459763,-0.498716798156356,0.453134190819003
416,1084,2.10946702295117,-0.228492866859262,0.969934199065232,0.329588182996284,0.475089875367333,0.134414975907244,-0.958244036935469,-0.300411952444823,0.328346697535897
417,1085,2.11219810717337,-0.224383285679823,0.971975865908684,0.310623704111192,0.459581521547065,0.139681620256024,-0.989876615487672,-0.316526614107861,0.20820362203435
418,1086,2.11488388570649,-0.220302230830804,0.973565771511513,0.293013097345827,0.446051256667634,0.139205762431463,-0.904388062234145,-0.558104481809612,-0.087176366621673
419,1087,2.11765619980774,-0.21639230765859,0.97498526901622,0.278083565626109,0.433007881486239,0.133587998321576,-0.902969071647938,-0.679674155505146,-0.428325909022903
420,1088,2.12047834910652,-0.212793061176215,0.976243163332162,0.265261192736422,0.414944615939603,0.123858823482195,-0.97570597085392,-0.82766489900222,-0.714231897193509
421,1089,2.1234068125394,-0.209409259831571,0.977211902558563,0.25803722322895,0.394951005331907,0.11089217316008,-0.69067820917233,-1.04188708604806,-0.884539145787664
422,1090,2.12650830604993,-0.206184301640167,0.977921494977613,0.25917581166095,0.379546114343338,0.0962390501504799,-0.593190253534484,-0.853363085367172,-0.806181922794324
423,1091,2.12983430414856,-0.203038298579253,0.978432647107812,0.263749037187826,0.366482860579667,0.0823383604946889,-0.818254334974025,-0.817038853777477,-0.688567072506131
424,1092,2.13336192008337,-0.199846556165851,0.978750329048476,0.272091868788087,0.359410488855154,0.0651965355317496,-0.842287553501546,-0.767216185862129,-0.830197944538323
425,1093,2.13701532932034,-0.196584800220509,0.978916494470912,0.279501980359963,0.352732539051759,0.0503265690508277,-0.576367011379294,-0.695654764203019,-0.800749142014341
426,1094,2.14069410801394,-0.193235523371122,0.97898903578427,0.283315644272596,0.345401573093227,0.0403327939819873,-0.425764250158975,-0.562704916853304,-0.51593185650489
427,1095,2.14436990570772,-0.189924536017769,0.978763645919884,0.287444335519044,0.343389299357976,0.0303175305047694,-0.19569909358232,-0.429537777918419,-0.659954735520001
428,1096,2.14803558571488,-0.186282662901876,0.978726104029153,0.290739395654953,0.339882428430651,0.0194300412822585,-0.423857518781402,-0.305852725576447,-0.646298583356229
429,1097,2.15158252078671,-0.182500951023179,0.978627799054993,0.296857828206768,0.338466506565548,0.00875436933160933,-0.271654921478656,-0.211994103072756,-0.625149498727212
430,1098,2.15502806969603,-0.178605733189779,0.978485659357714,0.299178641974004,0.339769018693769,-0.000662225625388478,-0.471243475156411,-0.237398215081713,-0.66033548988439
431,1099,2.15834954384587,-0.174634703217777,0.978309002147635,0.299814434461416,0.34109417760517,-0.00937226694794184,-0.588685851398402,-0.233522847303014,-0.691420856816637
432,1100,2.16152261519785,-0.170636522261845,0.978102542958051,0.298239330161219,0.341668232867823,-0.0172924893732257,-0.639063095929233,-0.317922381446788,-0.69437876874674
433,1101,2.16456255103245,-0.166668615768052,0.977872315200408,0.296520492619951,0.340872333937261,-0.024179483931575,-0.521839755701639,-0.364410643974103,-0.702915685671886
434,1102,2.16749787088082,-0.162796587375496,0.977629859211227,0.294119389147534,0.337622030570632,-0.0297104941130968,-0.354153297448537,-0.474216368811656,-0.679894015690351
435,1103,2.17039254280934,-0.159089622249959,0.977377891666489,0.291374877834146,0.331006936534056,-0.0346218597563562,-0.301329533229803,-0.548619383324439,-0.690249570955737
436,1104,2.17328300300026,-0.155563535264604,0.977105224715826,0.289658754492627,0.323546708011854,-0.0408070845392242,-0.364996679263933,-0.60393067432277,-0.764293524155809
437,1105,2.17617334721731,-0.152213352008256,0.976792646741672,0.289712695993756,0.315935808417748,-0.0473467919688947,-0.389168029513548,-0.558876135715759,-0.75401513292432
438,1106,2.17901116259984,-0.149004340025513,0.976440910523145,0.289061773975918,0.308668771901541,-0.0534566169436442,-0.342376188468959,-0.467236517392724,-0.736502340089239
439,1107,2.1817241348592,-0.145870280397345,0.976066392883744,0.283920541735246,0.301243030357128,-0.0569457383027484,-0.109872627391091,-0.34624419891089,-0.669492387002789
440,1108,2.18424220855964,-0.142836831410846,0.975689569428223,0.276619835423593,0.294533705674048,-0.0605704722842024,0.144011740234314,-0.340699839891278,-0.779861819446556
441,1109,2.18657523622729,-0.139908545896682,0.975305882353773,0.267479734342765,0.287201717193412,-0.0643129302612908,0.385727147662691,-0.244496987316976,-0.897287146122672
442,1110,2.18875056781187,-0.137077634937564,0.974914755094043,0.257571607796343,0.279264008089886,-0.0676302376248122,0.38513589217406,-0.329512656226859,-0.82204751049334
443,1111,2.19078128791003,-0.134344827157184,0.974522491553602,0.244876967280002,0.271448082253185,-0.0702114212154853,0.401644086819773,-0.205131946812186,-0.796932972793514
444,1112,2.19270732211193,-0.131696671650653,0.974125308218411,0.234191245602531,0.263840292432102,-0.073816511176091,0.593818847183778,-0.242602308948653,-0.880228427804333
445,1113,2.1945706500924,-0.129122808976916,0.973704723805324,0.226898607403284,0.256483194834212,-0.0764907930201384,0.541573701814669,-0.206223183469529,-0.770563528816763
446,1114,2.19635240533085,-0.126550896032779,0.973281981091712,0.219639198372362,0.252126633171921,-0.0757466610849563,0.684870772266762,-0.0319738616994118,-0.668558097734909
447,1115,2.19806023758292,-0.123936281159789,0.972849024963906,0.213748841343771,0.248009680286823,-0.0760882360705725,0.530638700127624,0.145529651203954,-0.760507375061005
448,1116,2.19965874621853,-0.121243257252299,0.972381659676027,0.206643501225352,0.244800079036695,-0.0763971573000204,0.302570434079238,0.233533127023022,-0.689155584966733
449,1117,2.20114761805067,-0.118464989207626,0.971863974555681,0.19878593969636,0.243139033851844,-0.0780898298684137,0.0414280997397748,0.290996956206855,-0.660732756908436
450,1118,2.20259235130576,-0.115627433602218,0.97127227802424,0.193893013787163,0.241373048744625,-0.0820527103784923,-0.236715111512675,0.0472435799205866,-0.509216143131968
451,1119,2.20406212985921,-0.112767030247058,0.970615606326142,0.191736908621172,0.239304354262864,-0.0833169958380629,-0.366883480206342,-0.465216355503428,0.154608598778337
452,1120,2.20553235686029,-0.110014133315053,0.969930920302773,0.185490895824219,0.234316692813952,-0.081796304645876,-0.404210246232187,-0.618780569064699,0.755336801707832
453,1121,2.2070769492489,-0.107326080318396,0.969248043472157,0.186874553482454,0.239429000347773,-0.0760920745410238,-0.182996422158931,-0.464852598333173,0.998728598659668
454,1122,2.20865572844507,-0.104593449995141,0.968601475323086,0.18486444100679,0.260923821448664,-0.0659326950727822,-0.161595377527522,0.663173411234482,0.92220779243186
455,1123,2.21006493944163,-0.101725246396832,0.96801517770037,0.172709555813735,0.283957720946088,-0.0528835365700609,-0.382936605935861,0.917412213108077,0.959222890384435
456,1124,2.21122836291724,-0.0987733293307698,0.967509617888458,0.155098820342527,0.298632443540942,-0.0416700144105619,-0.220107738992132,0.379933819951759,0.651836400976032
457,1125,2.21227057987758,-0.0960600650868884,0.967555239651132,0.136159944621631,0.301020653446742,-0.0234314130083249,-0.206086490468696,0.218053214571503,0.71644759918516
458,1126,2.21302143455547,-0.0932264442700759,0.967473570308549,0.116963942107386,0.302392012942375,-0.0140879672642999,-0.241828447875692,-0.161336956339818,0.564523159333092
459,1127,2.21318484284937,-0.090651541751316,0.967512354258384,0.0941723912210433,0.297358399169845,-0.00759955601846818,0.0257604563075034,-0.673341317237879,0.400569990809935
460,1128,2.21336835044028,-0.0879740739338836,0.967509415556842,0.0775881279964657,0.290908765048243,-0.00352433548504428,0.211728547434232,-0.971844755336852,0.3663645681777
461,1129,2.21375673246767,-0.0854074457537041,0.967660850581038,0.0726509158553056,0.283432136359381,-0.00107848655950062,0.199328615814518,-0.900134080153722,0.379261761953334
462,1130,2.21455896790707,-0.0827250385631093,0.96787447097295,0.0784693533953979,0.277626551834327,0.00192677161967443,0.260732973271974,-0.705818125433891,0.382524311249294
463,1131,2.21587004708272,-0.0799586457465574,0.968145395659081,0.0913261677478101,0.271770109735049,0.00644992465230438,0.148493011721208,-0.591608097363032,0.419583250941867
464,1132,2.21768255164948,-0.0771260426790356,0.968507223328656,0.104803479707103,0.265028888751887,0.0143044604887502,0.138968060563256,-0.436766252155939,0.678146743529917
465,1133,2.21967758573486,-0.074369663487883,0.968878009375826,0.113608753443948,0.256226502004899,0.0234397502843161,-0.28183551232736,-0.287209608297893,0.663560201308315
466,1134,2.22175631465973,-0.0717259009149383,0.969379862573008,0.123985147306904,0.247969420530877,0.0350024240205231,-0.313981405633797,-0.238411117493269,0.836264560933966
467,1135,2.22381418940114,-0.0692259302983052,0.969920752561723,0.133196319575446,0.240080436039869,0.0443465791931789,-0.613794341828043,-0.145433710514025,0.841836987252888
468,1136,2.22574399647791,-0.0668379392316036,0.970496600175637,0.141022883859962,0.234994155557464,0.052234416465256,-0.728064283926053,-0.201620395896917,0.91169673994439
469,1137,2.22758366190095,-0.0645598593005419,0.971010642760728,0.148506911519384,0.231561758347971,0.0582887711447482,-0.768419766959557,-0.19347920906665,0.953253576835839
470,1138,2.22942593993961,-0.0623394929838446,0.971567969314916,0.157036948626763,0.229680066694198,0.0621616489848805,-0.643005618820057,-0.271851731635907,0.826575654328138
471,1139,2.23130243286134,-0.0602163185589031,0.972185819474556,0.164278030368064,0.227184744734133,0.0653104914913645,-0.509691025343049,-0.206175058201493,0.712460278342618
472,1140,2.23327703538937,-0.05813217895656,0.972788454822118,0.172118296654115,0.223925731404014,0.0667183201040177,-0.538521824742305,-0.157725650744614,0.577139015419437
473,1141,2.23525439999504,-0.0560867040258384,0.973378152005463,0.174192855921359,0.220691865693472,0.0683188308618003,-0.54581177148972,-0.137482625308012,0.499580486857398
474,1142,2.23715510121444,-0.0540652841477557,0.973958045746393,0.17182920838766,0.21763957951042,0.0689502470530453,-0.523441160488784,-0.0257666399442609,0.362182859569083
475,1143,2.23889192566429,-0.0520328691382037,0.97453728334457,0.163681538880651,0.214947674371742,0.0689689630616891,-0.402638172545462,0.0528533575901082,0.215149027011731
476,1144,2.24043833390808,-0.0499356413046353,0.975122916297275,0.152025571821344,0.213516469769579,0.0686305713372196,-0.284109369838591,0.0870749009822168,0.105660895004759
477,1145,2.241795643785,-0.0477407704286207,0.975670705618415,0.139176944637908,0.217586148515808,0.0666027117442137,-0.293273148475669,0.0953942464065704,-0.0914640821990786
478,1146,2.24304082069604,-0.0453101733328961,0.976231787471522,0.12941087090927,0.222826840191666,0.0629234441894367,-0.232022501962154,0.168180725017947,-0.186526553724726
479,1147,2.24415830245158,-0.0426104383429466,0.976740546513636,0.119540193760672,0.234130012602514,0.056918518737213,-0.276966123057624,0.068722093699368,-0.35463881981012
480,1148,2.24521846772946,-0.0396210779169003,0.97716681202404,0.112855525252859,0.248350509561807,0.0498282030686927,-0.150665876552114,0.113720756277987,-0.437544950787526
481,1149,2.24615190437466,-0.0363368930590178,0.977504924811924,0.10957813320273,0.269340588599429,0.0406199484425429,-0.018437808267618,-0.0391077563631412,-0.609712921686157
482,1150,2.24694832948237,-0.0328500344336989,0.977742563099856,0.105273058230871,0.290464518263587,0.0303395870413636,0.0196228734881009,0.00828516642394099,-0.720602456109385
483,1151,2.24752185000758,-0.0292238864665559,0.977864798379443,0.0972167523774743,0.311428194661583,0.0171409403388581,0.00709768594572942,-0.0433898267636507,-0.960268933662797
484,1152,2.24781705565559,-0.0255520557476581,0.977917550599857,0.0857729346830081,0.329719517614356,0.00192294379038279,-0.143041954512708,-0.0144805944643221,-1.15745969788762
485,1153,2.24787436478835,-0.0219281332754617,0.977932558217096,0.0706693802427661,0.343863651908989,-0.0126310109539081,-0.173146754472702,-0.0363228130669305,-1.30497562799921
486,1154,2.24790578304214,-0.0183080837439511,0.977858065094131,0.0603814990694069,0.353754101848903,-0.0262377584684056,-0.148037200855877,-0.169177328035954,-1.34355024578491
487,1155,2.24855708325162,-0.0150081659922169,0.977749533681927,0.0620474902274852,0.356494699280272,-0.0381563396137393,-0.0458256009738068,-0.300481030218417,-1.19606677739539
488,1156,2.25018571061235,-0.0121592542459418,0.977677134944012,0.0809704313248742,0.350735294645415,-0.0482984605589316,0.132590918207611,-0.292013869401748,-1.08149193007298
489,1157,2.25252121684595,-0.00946930600508626,0.977572393782403,0.107387359311707,0.340002819622581,-0.0541726604837094,0.0592175777454118,-0.125813659337775,-0.896213888724952
490,1158,2.25511649328099,-0.00678406299319159,0.977492604441607,0.132372804872859,0.33220017300726,-0.0548931421967574,0.29260189815824,0.476819266505082,-0.6229826014254
491,1159,2.25779262972129,-0.00398621828396538,0.97744965892814,0.158702197355247,0.330336250381003,-0.0546198278092712,0.17290471019765,0.745980795503724,-0.43598505441768
492,1160,2.26050809747414,-0.0010728426381968,0.977450512555473,0.182187213969072,0.332805983295163,-0.0515235817710289,-0.0236982721249961,1.08974082675779,-0.15065329431225
493,1161,2.26320075251732,0.0018813167253066,0.977518932723649,0.197180729805585,0.331097673516183,-0.0430846656602245,-0.158652623795681,1.04770581305682,0.208784801044137
494,1162,2.26594291091602,0.00483227127581024,0.977615840507238,0.215258676515518,0.333935014871519,-0.0351448118652493,-0.207418597703902,1.39135534143552,0.431635082969101
495,1163,2.26875829223417,0.00768187259011285,0.977750310701576,0.23158148483201,0.330050202854038,-0.0234371764763213,-0.0667350180261335,1.20758154095298,0.778069872479565
496,1164,2.27161216587165,0.0103556964232276,0.977917490209439,0.24501755721057,0.320773266593489,-0.0104033519936131,0.273886048066961,0.996669181527668,0.935633331040335
497,1165,2.27452107176017,0.0128256782671062,0.978101506382765,0.256884331890279,0.30830628271625,0.00145207170889313,0.411239534016392,0.809071540277479,0.920176494961752
498,1166,2.27750187015362,0.0151321150140372,0.978267439321517,0.270940104124446,0.296562727890458,0.010140481899677,0.474721757338976,0.720495701809554,0.797833731211942
499,1167,2.2805534482322,0.0173497869645532,0.978384488851456,0.2852883844714,0.287818616538452,0.0152466680125376,0.459565243650642,0.590019152670369,0.624990317932726
500,1168,2.28366242456616,0.0195446352949562,0.978434302553697,0.298880130494482,0.281150068600998,0.0172102709454867,0.407500895176042,0.492696266923992,0.447101923546519
501,1169,2.28675852272385,0.0217605931857036,0.978388302193553,0.308657111668255,0.276431485498203,0.016815546739855,0.33114462177416,0.340391339551379,0.282274272213085
502,1170,2.28983447924959,0.0240319932995213,0.978278606012819,0.312861982251866,0.272757091349999,0.0149841560169237,0.299370817088412,0.224299959715602,0.14322385083722
503,1171,2.29284269899432,0.0264746413007939,0.978096045781233,0.313696061740883,0.27310476866223,0.0121031290004789,0.317480588290498,0.132549131895515,0.0702988318000318
504,1172,2.29572326243573,0.0291148033382215,0.977856839068842,0.309321300169758,0.274076796811762,0.00965578560734592,0.511186830257041,0.16510413539901,0.0351374792320209
505,1173,2.2984538122967,0.0320159749873275,0.97747055487486,0.302630829500288,0.278787511531101,0.00568888279336486,0.546830235752204,0.0314053300977937,-0.0879252064189322
506,1174,2.30103586132865,0.0351874312647617,0.977003470433114,0.296091035666653,0.287905934842916,-8.60308774465759e-05,0.4874626970267,0.087985409566709,-0.213405458526823
507,1175,2.30348291939818,0.0386503553977492,0.97648653509828,0.289126927053538,0.301546640761305,-0.00673942403146966,0.319371340921583,0.120880961537594,-0.263444890908262
508,1176,2.3058139830286,0.0423944903700008,0.975919074957221,0.282274025646647,0.317567147258797,-0.0135890230034992,0.206986901801506,0.14083519299456,-0.277241318352881
509,1177,2.30804922213362,0.0464006994489082,0.97529924871477,0.276514162407708,0.335388375431064,-0.0210495020909103,0.146797429455743,0.186982984165641,-0.315182140521976
510,1178,2.3101997693111,0.0505989696019717,0.974632112521179,0.270850507821996,0.351892212909793,-0.0275455506066011,0.268352199033317,0.250691153318902,-0.262021221419159
511,1179,2.31229480917186,0.0549664551474869,0.973923890400071,0.266154773526494,0.368056709703209,-0.0342824704372707,0.312622028380734,0.362010813675681,-0.278786866725049
512,1180,2.31437277488105,0.0594389988989612,0.973174943574337,0.262979347215549,0.382124070529599,-0.0413793095557857,0.292333461904951,0.459730054941763,-0.299153757783974
513,1181,2.316418931424,0.0640040267426193,0.972383069763646,0.25840919393642,0.396422659233199,-0.048784774691198,0.300891177534699,0.600639711013695,-0.343361376797115
514,1182,2.31844377363013,0.0686164313948132,0.971549136012536,0.253071684420502,0.408431196337052,-0.0558095339715716,0.329770203758321,0.6961194423647,-0.35613599891754
515,1183,2.32049094031764,0.0732320549964343,0.970670501863273,0.249275770713398,0.417898836778331,-0.0637896597586121,0.350871318690985,0.771766260238235,-0.473513727300877
516,1184,2.32258427877727,0.0778244717904306,0.969739663432836,0.245791784514112,0.425521623099158,-0.0722752399281762,0.44225785311815,0.781418864788596,-0.584301373866909
517,1185,2.32476079118085,0.0823573538017205,0.96874849247899,0.242711131987792,0.432143940851087,-0.0812150663625118,0.372742122865427,0.790843094201774,-0.662567604015795
518,1186,2.32702718344551,0.0868320487586483,0.967693779148627,0.240120094124956,0.438833972654883,-0.0901292852522655,0.303681049888218,0.744477502275684,-0.716824433857569
519,1187,2.32941045244475,0.0912159858135755,0.966574091454127,0.24045531270254,0.442885826645047,-0.0991585875758652,0.250982903696623,0.650642231992979,-0.760285739728737
520,1188,2.33193924915014,0.095541762083565,0.965388326608144,0.244093593701841,0.447520232095564,-0.107317111075934,0.28417552822916,0.407890121541624,-0.736106672034891
521,1189,2.33458045305563,0.0997274087133481,0.964224379392232,0.248427385752939,0.44759420201832,-0.11185500675883,0.196657111107281,0.382005470657656,-0.526962461627443
522,1190,2.33734740019939,0.103844004609224,0.963099645269565,0.253610951183526,0.446944133438986,-0.113081179917806,0.33912645358692,0.311656874510446,-0.339520656281644
523,1191,2.34027248390525,0.10792869007513,0.962016568818646,0.263004045231668,0.444099403389014,-0.112877804256684,0.441346711780718,0.240541127122897,-0.209215097196922
524,1192,2.34337504558078,0.112009358072094,0.960977556569122,0.273705087265832,0.44249905958049,-0.106846358059987,0.341080371452526,0.318200430464912,0.39352094006783
525,1193,2.34661448485311,0.116121227844642,0.960025521880794,0.284630817112247,0.441045208457137,-0.0959399763717021,0.213283594060586,0.440378288008431,0.971414057391528
526,1194,2.34988654073456,0.120290944670265,0.959215078334709,0.292772450200989,0.438343335121867,-0.0805414522507453,0.107466659087021,0.538794716423644,1.50098550046736
527,1195,2.35308899620713,0.124505255448331,0.958573639924385,0.296738022953323,0.432277724984163,-0.0597031004512714,0.0820372069562173,0.586447874584458,2.05649677426647
528,1196,2.35620239456733,0.128742519778832,0.958139289776142,0.298577893047724,0.42495054903734,-0.036063378453727,0.174298425056295,0.361599883450304,2.27369796677197
529,1197,2.35930835066699,0.132971060424756,0.957926068178081,0.305542849481054,0.415966249467429,-0.014334579434714,0.218350432689729,0.0763179106654314,2.09038751029395
530,1198,2.36247572475775,0.137225094896922,0.957893572169832,0.315500666713476,0.409237891445916,0.00154309980351809,0.217674189594118,-0.3470298060292,1.60723369058866
531,1199,2.36570944257237,0.141526724992914,0.957994290533611,0.321020175545192,0.407712524804634,0.0143923236559305,0.11589017979001,-0.320955196637321,1.30626725862539
532,1200,2.36894185857644,0.145942750371238,0.958264973305336,0.319353541563608,0.412220204923846,0.0280057188940783,0.0458556300661046,-0.203556312898117,1.22116008180272
533,1201,2.37211505071353,0.150565176579592,0.958630279758085,0.31329909550177,0.422035157974467,0.041871769591707,0.0257549884477491,-0.115658787266195,1.17614379370268
534,1202,2.37531928099386,0.155562201599299,0.959174708521426,0.310363097391605,0.436681454416902,0.0542359977611313,0.0820980497486484,-0.170506228013729,1.05502063729077
535,1203,2.37856769233625,0.160959304792843,0.959829300326341,0.311477969548951,0.455683978944349,0.0616879400232365,0.200190795239517,-0.25379076013301,0.682782917838098
536,1204,2.38199493634125,0.166824428224405,0.960508207239724,0.32028626987738,0.480857786504515,0.066574901750681,0.285413245616866,-0.308336217768898,0.639897843875835
537,1205,2.385609464349,0.173062847179996,0.961272246846027,0.331892457194832,0.507101744719736,0.071328781977503,0.217636996765447,-0.124726835783058,0.670671716602911
538,1206,2.38943194487036,0.17962281898288,0.962154814413459,0.341637822387246,0.535459157017599,0.0767506451379592,0.0297425700328923,0.141712893468889,0.687448995676392
539,1207,2.39346067689971,0.186291830408432,0.963085620155887,0.352357993475141,0.562245126799008,0.0805040636082032,-0.33342756485988,0.278947078268041,0.569839493973836
540,1208,2.39765929741353,0.192882056567691,0.96407404423053,0.360569396046073,0.582224350646181,0.0829066554382099,-0.56568956128523,0.138927275537653,0.341764051454734
541,1209,2.40170250909407,0.19905497841054,0.965296329864266,0.357962820573657,0.58866528054629,0.0892969344167021,-0.647245226195537,-0.117099674829274,0.326192796810608
542,1210,2.40645898902157,0.205492591998868,0.966397963720265,0.362471687404503,0.592279971283509,0.0926252609236672,-0.8375215352183,-0.0787361662737061,0.29812968409117
543,1211,2.41008700014712,0.210742852682512,0.96754225294117,0.354734499607316,0.580442365054157,0.094319754568359,-0.885817154770966,-0.102835071526504,0.182966236566632
544,1212,2.4137869500097,0.215755374367968,0.969850202833854,0.348789474196114,0.562704314615221,0.100279969008236,-0.913203365446511,-0.175693111633648,-0.0839776670487329
545,1213,2.41693757034746,0.220085809849861,0.971824242181693,0.336492090105274,0.536408312856736,0.102991525275598,-0.976222191305827,-0.134597506593244,-0.253751068565066
546,1214,2.41984678770604,0.22427965930669,0.973635032222443,0.323146075273342,0.510497350474766,0.104078152264548,-0.991213131799021,-0.239572028129259,-0.302702454636912
547,1215,2.42317283537102,0.229621136638453,0.974619273590896,0.314860579630474,0.49489418595304,0.0998009738113477,-0.937202153853426,-0.24450606130633,-0.364092148631363
548,1216,2.4261703925662,0.233825130432161,0.975716039207951,0.305970692900605,0.474899452749079,0.0967909600391308,-0.667515864527934,-0.326380705475744,-0.369014188500429
549,1217,2.42912281287605,0.237645711048642,0.976693303590504,0.296771140251257,0.452028545254771,0.0894585284094885,-0.962450895403958,-0.466898417825765,-0.674507020810143
550,1218,2.43206038867871,0.241293468207804,0.977494555687977,0.290961980802375,0.428640846576942,0.0779463052445416,-0.942818908994263,-0.598166368551155,-0.803720262951072
551,1219,2.43499973799799,0.244851005964774,0.978082103612017,0.285478923457924,0.406610045290523,0.0651496165748502,-0.67818526136384,-0.792568145279264,-0.807766285652146
552,1220,2.43802347326759,0.248288230306855,0.978477017619962,0.28311274384439,0.38598495924659,0.0519820970974315,-0.392598722842895,-0.87284352842195,-0.814074256178277
553,1221,2.44113560558866,0.251596306706456,0.978744150911264,0.280402539831884,0.368923587943992,0.0426430580671046,-0.289423631541503,-0.699809656154397,-0.55736898227921
554,1222,2.44430623395932,0.254812910826147,0.978938020479326,0.277196114265865,0.355291864759872,0.0355977166767477,-0.272370445554332,-0.572636949196692,-0.413788713201066
555,1223,2.44748723018461,0.25803105347809,0.979076335751174,0.275337809641852,0.344446973411901,0.029416420344776,-0.25262523788109,-0.540956641655017,-0.34343403907487
556,1224,2.4505317272077,0.261252429115723,0.979141649731282,0.222994397367078,0.3224524958275,0.0180671448534198,-4.81153058103417,-1.61111852206804,-0.717793811952562
557,1225,2.45414241932067,0.264333520078958,0.97901361343082,0.233328585297178,0.337644194294537,-0.0124400075839388,-2.14223781991525,2.13931365776458,-2.06309901441779
558,1226,2.45768616751369,0.26753683045223,0.978919963929563,0.260836626803714,0.327236948644799,-0.0116732288847519,0.535605196396306,-0.645841275749356,-0.227875487331714
559,1227,2.46126058874361,0.270803903582839,0.978879058908794,0.31187782115316,0.32282116609412,0.00519244664783638,3.2195233355536,-0.598155819222791,0.966741225541565
560,1228,2.46515378425901,0.27406546403971,0.978898319975788,0.336150192835554,0.319275480461873,0.00502029707471567,1.04647248098618,-0.508568764437114,-0.0977302045379635
561,1229,2.46899855955968,0.277471572020585,0.978864101749705,0.34636136368441,0.322203680937016,-0.00162197335859526,0.33080697548676,-0.135720855515508,-0.546889269012305
562,1230,2.47257926244957,0.280999250707391,0.978762079337751,0.346644174378167,0.322484335233412,-0.00955346899858244,-0.0190823570272525,-0.378649742793637,-0.617961117645397
563,1231,2.47585533811941,0.284588435318946,0.978602130316689,0.341965564471454,0.319635869687048,-0.0160851872941866,0.0139989410518782,-0.658872249023533,-0.586435503118306
564,1232,2.47885740391824,0.288185276947092,0.978397420477429,0.335803807023501,0.316000217024525,-0.0221071450854232,-0.0268276893095709,-0.808214790547073,-0.574246016526714
565,1233,2.4816597387533,0.291758926969899,0.978142993929744,0.33005292247923,0.311106868828839,-0.0302194636644317,-0.259749590828536,-0.841122357852103,-0.725187562752622
566,1234,2.48425700062211,0.295321428997069,0.9778361234752,0.321686541616988,0.305356832076477,-0.0378208572179222,-0.225801322977643,-0.97168158656274,-0.73651418136505
567,1235,2.48664324973053,0.298830979635522,0.977484532905801,0.309286349541209,0.295172091810988,-0.0452182166626101,-0.185418415355162,-1.15772972275915,-0.799134058294468
568,1236,2.48878983315519,0.30227694971439,0.977102717679817,0.293917318469168,0.279902004906968,-0.0491588174809078,0.0323854623976794,-1.62986056141995,-0.564924072259487
569,1237,2.49081518004948,0.305600423348716,0.976707789544479,0.27350494386596,0.279304629939028,-0.0533752094636399,-0.62158485050343,0.0695170589075284,-0.693935759309069
570,1238,2.49271222868449,0.308895086525188,0.976275370285943,0.254196931039142,0.287362789984986,-0.061469241937124,-0.850693671931396,1.1084679419189,-1.03468268134573
571,1239,2.49439747993462,0.312198425088862,0.975816954236173,0.235784805305125,0.286533472744645,-0.0634409236717526,-0.166634559897737,0.270906446197271,-0.574138706385933
572,1240,2.49600377321684,0.315355682262999,0.975349099768853,0.219285740785408,0.280459556278605,-0.0666251942305094,0.140908086472123,-0.169204689555659,-0.620841465614184
573,1241,2.49758926270635,0.318304305691893,0.974858359827589,0.205693237212205,0.270755388561159,-0.0702671642592165,0.226468794807762,-0.463224947973789,-0.541410553130539
574,1242,2.49921009026953,0.321064692989007,0.974352155468637,0.197266064716252,0.261535585995533,-0.0738233322627115,0.244343327086689,-0.504523144815028,-0.595375839745193
575,1243,2.50086051985687,0.323715045470496,0.973835262510312,0.191436177776951,0.256581050405101,-0.0756834153748559,0.350034624255995,-0.267211414741675,-0.689949701090369
576,1244,2.50245708649176,0.326382774426386,0.973320780043146,0.184901860147153,0.257751929180075,-0.0737935800225862,0.518396180986955,-0.0424460352410862,-0.612838565910975
577,1245,2.50363026747388,0.329271071452725,0.972925311770057,0.17274134992891,0.257292395166425,-0.0679128300892787,0.428962764237199,0.432997075873762,-0.386581034969847
578,1246,2.50512035205782,0.331963373619463,0.97245680769738,0.168451961169128,0.259896609009565,-0.0691009705054755,-0.198803647148996,0.15562009459462,-0.717704746604317
579,1247,2.50643701136392,0.334702386043993,0.971945533328176,0.157193898771439,0.25047615442941,-0.0675511816360591,-0.275711924630974,0.307468467183277,-0.560458550860703
580,1248,2.5076224086645,0.337531408797744,0.971370960239557,0.149247472369342,0.246440193219785,-0.07058865640571,-0.203825206827623,-0.140407899093715,-0.433451223595147
581,1249,2.50881078625789,0.340437471822545,0.970724216588538,0.141974050438276,0.244498988087839,-0.0724185477668574,-0.0923953070823193,-0.561702349005654,0.139105973083569
582,1250,2.51007794689619,0.343770120713086,0.970089571435671,0.147304364179842,0.253015119241404,-0.0745344258639019,-0.122712380287803,-0.477986639913304,0.457660530295709
583,1251,2.51141094065411,0.34656558851098,0.969444438501666,0.149444139683603,0.258967839671193,-0.0662325533021392,0.387761167387255,-0.187757225464906,0.738527715116605
584,1252,2.51278946314784,0.349478000738316,0.968839037392334,0.15759630488009,0.29247330636575,-0.0565227830511488,0.112824355945797,0.0460344046235984,0.700205239170897
585,1253,2.51394554742881,0.352440333711575,0.96833213330735,0.148675481508225,0.317260761833076,-0.0396421673375103,0.0523407055229611,0.532682616260299,0.848310879957435
586,1254,2.5148094493496,0.355366131149614,0.967906932913066,0.128624688757795,0.328848355940777,-0.0263659080486486,-0.0510866091338491,0.0527215045352582,0.5588728271178
587,1255,2.5154790513342,0.358121200844362,0.967474742525132,0.106902340628655,0.329290199106729,-0.0185702407320565,-0.0523899087757499,-0.121093559551721,0.450038736935731
588,1256,2.51610091742109,0.360706333971273,0.96703028838457,0.0886818779628082,0.321528219188267,-0.0126195652383209,0.0694370182941604,-0.256632933339803,0.598851666749175
589,1257,2.51693932198463,0.363095758992391,0.967185664180271,0.0811287252870001,0.307592254702772,-0.00349848011271589,0.00768339739161457,-0.461848354494157,0.436369232348026
590,1258,2.51774087717991,0.365606302982011,0.967072053261605,0.0776183475977156,0.295389708727084,-0.00203687186665119,0.275889534353982,-0.898472527784903,0.335675814551342
591,1259,2.51890134145989,0.368150005423948,0.96703705603887,0.0864009796762927,0.283433518758518,-0.000200837801188426,0.383836394496931,-0.821455832455835,0.397538379412621
592,1260,2.52044240238875,0.370799817247789,0.967150637049853,0.10061433108305,0.276404229295143,0.0018515559574302,0.298231128010192,-0.657717519353398,0.315238212291623
593,1261,2.52171569444481,0.373822985579966,0.967405818526754,0.109533716521221,0.269302540278658,0.00687307849698709,0.258563348602133,-0.470534191203902,0.361479212764081
594,1262,2.52376223613293,0.376561457562399,0.967700641046135,0.120075177228102,0.260141365914426,0.0136914674367134,0.0145727225501685,-0.30330016261436,0.46708009960647
595,1263,2.52580989455321,0.379240985627757,0.967863089580672,0.128471621453716,0.249073144692581,0.020962103129007,-0.127594890547472,-0.382356888969266,0.567733158562731
596,1264,2.52793283181552,0.381750027177158,0.968010674811443,0.138388003439935,0.237912210060333,0.0270762527798907,-0.486493123820744,-0.442070554848554,0.623571638745467
597,1265,2.53001852916442,0.384083216477755,0.968323690259576,0.148654177313649,0.229589840731274,0.0322644570151152,-0.771409245481494,-0.528878155205077,0.639884521064821
598,1266,2.53200675745307,0.386271751563384,0.968755809432525,0.156347297104082,0.223233920622536,0.0379413890781261,-0.909678265900273,-0.391041692350614,0.747810996880658
599,1267,2.5339149826598,0.388373394350929,0.969308730288633,0.163653961739186,0.219122624874921,0.0426563421607944,-0.738295803399051,-0.381965083592608,0.702463034159841
600,1268,2.53568147475673,0.391010128365304,0.969867575461211,0.175280215858604,0.260891676847669,0.0391744704963608,-0.0564270849975706,3.49296054688392,0.129112604393337
601,1269,2.53701009664227,0.394263736171374,0.970754395196117,0.16501537938908,0.260221564640935,0.0530443261741527,-0.787107369093949,-0.746203681520077,0.965687154286803
602,1270,2.53809363088679,0.397280053774196,0.971577118428238,0.143593134786484,0.238835912127864,0.0649030299367457,-0.686983237767313,-2.56678137367154,0.784299264756178
603,1271,2.53915788561567,0.399960283491634,0.97243577852825,0.123301892144024,0.229582220678733,0.0677568996321,-0.987964724372261,-1.31008932616727,0.209190678705851
604,1272,2.54014586848605,0.402537691836992,0.97328997815162,0.110287882607381,0.228017091585945,0.0719363217086669,-0.330103964725816,-0.817646788576334,0.311863237674452
605,1273,2.5412746673997,0.404886410634352,0.974061688994343,0.105901568032514,0.22604003151483,0.078124293972878,0.432001793737185,-0.804013324184939,0.509743387421403
606,1274,2.54264466755114,0.407002892057963,0.974739507186694,0.108322196108511,0.22662046471848,0.0796274095676641,0.485356301272124,-0.261806827381994,0.279905571778119
607,1275,2.54435365773952,0.408919920737329,0.975299326345329,0.118980810304148,0.226971082143552,0.0787429005032698,0.730742662787219,-0.342014782597206,0.18741594552732
608,1276,2.54613893413801,0.410949882159393,0.975806182094609,0.117777719539455,0.235947674452161,0.0684689494502589,-1.08147510118428,0.815979869326861,-0.458768913676881
609,1277,2.54764226631789,0.413428892546646,0.976308064962336,0.115858732398159,0.249044718567375,0.057333380012793,-0.962216556270972,0.404486991551801,-0.578250150318223
610,1278,2.54885865804436,0.416236919607555,0.976734762592604,0.117454372679646,0.261944752844197,0.0475637909325039,-0.228188323048149,0.00455840151795304,-0.517400178124315
611,1279,2.54989922351662,0.41916832983753,0.97709111208902,0.11647546959355,0.272171252217107,0.036445664420935,-0.0349773002298236,-0.149184786776576,-0.680252152873972
612,1280,2.55074773500688,0.422145944512892,0.977359475844567,0.111605297512288,0.279961381475609,0.0245621568209039,-0.106359624385974,-0.285787909662118,-0.807192360064402
613,1281,2.55141351233041,0.425087038995084,0.977493818199362,0.104172296771319,0.285535474073246,0.0107774367684672,-0.248698247687756,-0.198300043080104,-0.953811048289023
614,1282,2.55184801608835,0.428032071591873,0.97745934564388,0.0919105625233424,0.291976510636354,-0.00300416500314364,-0.341899615895305,-0.12342182937996,-0.984163062210223
615,1283,2.55210365689566,0.430982576611703,0.977247313319434,0.0782072370980578,0.296701761320878,-0.0167259456433892,-0.427923504799087,-0.00449298414405513,-0.879769643956784
616,1284,2.55225316136249,0.433785529977435,0.976958545751496,0.0635540455271266,0.299510872692839,-0.028083487427414,-0.250327833036882,-0.154767392818209,-0.650441897444099
617,1285,2.5526158887468,0.436299736209063,0.97667960972985,0.0573611240650375,0.292477314800781,-0.0372369268350452,-0.128460700945483,-0.177276598642529,-0.561651663912926
618,1286,2.55379976307776,0.438602339952149,0.976452871524034,0.0675685219002373,0.283460366881334,-0.0437271979490279,-0.125463610688194,0.0162351936137523,-0.557879781692319
619,1287,2.55611385305732,0.440836582245491,0.976321146650846,0.100042455438469,0.276621872698309,-0.0472782235724692,0.0404999803960711,0.329401689358578,-0.420968024667559
620,1288,2.55917511422742,0.44311379622923,0.976334919485018,0.139731100030439,0.271543389851222,-0.0455619335354485,-0.0597925756008329,0.461140141318869,-0.121470141273933
621,1289,2.56254302939111,0.445403220497298,0.97651602242703,0.176037490912831,0.267238842734799,-0.0367646523427362,0.16681435297058,0.690810775612911,0.305994760983434
622,1290,2.56606579457572,0.447692648519158,0.976803670473698,0.207354789981516,0.261966952355165,-0.0276504608165374,-0.0244356257683054,0.747575090711216,0.323360350004926
623,1291,2.56965172039379,0.449925676195307,0.977149591666853,0.233846524896733,0.258264133771903,-0.0164328940348903,-0.0789954745958923,0.822353244204936,0.540080478383951
624,1292,2.57324862969572,0.452093477964502,0.977531852429913,0.256901909357396,0.25424560388184,-0.00422406715627143,-0.041715410110086,0.797268692442919,0.713511109133448
625,1293,2.57679013741011,0.454179220956114,0.977939805463328,0.275359344044808,0.247521757873218,0.00725915393442335,0.132287457181978,0.600822534894843,0.724714864357993
626,1294,2.58024353592705,0.456204678082767,0.978354315535732,0.287857596005738,0.241199189766875,0.0177147242168,0.177006453092955,0.451732993964918,0.712003788781482
627,1295,2.58359474428446,0.458194735636739,0.978749346522913,0.297194523235773,0.235737516130577,0.0258747644059355,0.223942136937189,0.402993534048612,0.628476114271956
628,1296,2.58685929138041,0.460190333510722,0.979091315741922,0.305812407899406,0.232797154239447,0.0304264323105936,0.226156574114898,0.406898121980984,0.471396556134299
629,1297,2.59006277678573,0.462229620989354,0.979358497923274,0.312941837590416,0.232117819284272,0.0311239942400086,0.073139036232629,0.366146042119246,0.251918662477106
630,1298,2.59320017931563,0.464330393144873,0.979537415943685,0.31769926672741,0.230949601406679,0.0294649197721925,-0.0158269008383109,0.245773930870081,0.10751845130629
631,1299,2.59626072495558,0.466528730240998,0.979630675012693,0.320198572302591,0.232150556245812,0.0259187993266601,0.0569034712048859,0.105960229074813,-0.0343497650814707
632,1300,2.59924095928504,0.468819586095323,0.9796755105342,0.321279568820066,0.231814298640474,0.0221077344005274,0.253606156357073,0.103939460781807,-0.102992708459065
633,1301,2.60208361782147,0.471267046794691,0.979649508093519,0.320033433882886,0.235710452301225,0.0170405036644638,0.40816480084798,-0.0618163246749607,-0.229003978891613
634,1302,2.60485015834949,0.473848847062604,0.979538208264953,0.317934255814692,0.240621507812183,0.0108402913607124,0.371938917406804,-0.0103300708734232,-0.322398537522201
635,1303,2.60750814890082,0.476617947171424,0.979361967083804,0.314150820174751,0.248523726621995,0.00423080011864626,0.286120221504139,0.00266041446569837,-0.385872497030639
636,1304,2.60998452081241,0.479566000943574,0.979093529352377,0.307226898058648,0.256686666283191,-0.0025350886121391,0.292455508048775,-0.0671271268653147,-0.387123614773878
637,1305,2.61242035211716,0.482662091075084,0.978774425363352,0.298895634582659,0.264912423971869,-0.00865279605561817,0.219423230561857,0.031344688146884,-0.382792465208851
638,1306,2.61457176347081,0.485920057314824,0.978336513867111,0.285990209006112,0.275308230400895,-0.0144662963650349,0.301238816941209,0.0473258243813744,-0.314135431043573
639,1307,2.61675685463234,0.489253066969346,0.97780695441124,0.277170532907544,0.284477539286184,-0.0208640587985072,0.317878381709012,0.17749227208687,-0.320224297693087
640,1308,2.61879392633661,0.492662919611131,0.977257431359848,0.266304353859329,0.293935439323086,-0.0251163074373465,0.244342944147808,0.428243406010871,-0.164385993792539
641,1309,2.62068945297721,0.496110216061504,0.976667392810305,0.2542553160974,0.304413105380151,-0.0308322715387176,0.167702849818357,0.426536738202344,-0.264743706900367
642,1310,2.62267921730636,0.499551431340303,0.976093909746331,0.248097331376649,0.311174769542204,-0.0386874945652908,0.336590410179346,0.415273016378742,-0.543804691266663
643,1311,2.62461852121868,0.503020500386104,0.975462907385119,0.244392192222252,0.318542013866481,-0.0450211990554795,0.363912996289074,0.552110179661728,-0.359186861982213
644,1312,2.62666218775038,0.506477017119597,0.974713105551474,0.242743595341729,0.324775483189985,-0.0500143910852707,0.273886144317294,0.518139615819487,-0.24424838365614
645,1313,2.62877738740842,0.509928529991195,0.974064969155902,0.243172557204199,0.329925784473958,-0.0541402178608506,0.38561170623544,0.518520999968439,-0.267568546918005
646,1314,2.63094609321757,0.513377076632428,0.973422172013602,0.245438801599665,0.333870381404399,-0.0593266535671539,0.5945416906721,0.441285587919784,-0.430548452221967
647,1315,2.63324292835703,0.516781424612533,0.972736931384654,0.251620354435246,0.338021036713862,-0.0642748553061915,0.577866560297583,0.530095592049864,-0.350494809605248
648,1316,2.63567718699321,0.520159419530157,0.972008264346414,0.257704886223753,0.342484756538561,-0.0678813019998451,0.571394504991016,0.57804929470649,-0.243807154505517
649,1317,2.63825784969411,0.523528025879209,0.971250500397424,0.263969460469112,0.347277487471787,-0.0718675461481961,0.385730319473258,0.553472404290903,-0.271282201163336
650,1318,2.64092632858245,0.526888821844118,0.970472866249343,0.267541838907725,0.35118606764474,-0.0751432483971577,0.384234228621592,0.630890977064722,-0.295891972495399
651,1319,2.64365521773985,0.530257601540551,0.969669211954318,0.268719661959635,0.354927837660759,-0.0778773420774808,0.388015312321167,0.629583246952081,-0.287165958914021
652,1320,2.64640733216534,0.533644226757931,0.968839108213365,0.268071252487517,0.358638317459105,-0.0797883282834315,0.420639259341682,0.653217713004707,-0.248818745484185
653,1321,2.6491745462702,0.537044973536823,0.967989614718118,0.267115996256983,0.361190720445612,-0.0812559163881978,0.354123746162346,0.674118324644429,-0.226129683703991
654,1322,2.65194608896023,0.540477812426815,0.967121216960704,0.266956683125874,0.364436299898081,-0.0819567174933253,0.342734887257601,0.622815896516245,-0.15009855382482
655,1323,2.654749106668,0.543930167211899,0.966249978007581,0.269946055974161,0.366101151574485,-0.0815215448102359,0.467475659122547,0.56544182085541,-0.0814550201517892
656,1324,2.65761426690771,0.547418334862532,0.965376717745415,0.277343557685835,0.368427752836072,-0.0816744255161759,0.539827846893172,0.472000880252877,-0.0745208067894034
657,1325,2.6605583840669,0.550986871922111,0.964517360815777,0.284138538265001,0.37335801104599,-0.0788970304949531,0.511697701484429,0.500694673270644,0.27681049384326
658,1326,2.66356836318912,0.554619287347298,0.963659976504307,0.29264128568792,0.376770741791407,-0.0745843678544005,0.429074449697433,0.480643746952267,0.517235276525636
659,1327,2.66666917075551,0.558307651047767,0.962851654732999,0.301040291066047,0.378458809968043,-0.0648995127912426,0.285404788877448,0.57184811212703,1.08947032627524
660,1328,2.66977527268915,0.561986400108457,0.962135117204429,0.305171618151112,0.375738666921963,-0.0499183970421943,0.0831131870157565,0.623978394905599,1.63369126805273
661,1329,2.67284151859575,0.565652056285539,0.961574562912362,0.305531743230768,0.369418429166081,-0.0303406587684861,0.0184624858403667,0.450289640055843,2.06519723475154
662,1330,2.67583002155901,0.56931850941446,0.961183048690676,0.30622966724873,0.359363311534545,-0.0104596932450817,0.142602351095841,0.215704736611671,2.05450662542645
663,1331,2.67880920243923,0.573005889028094,0.960945336489897,0.310926714380462,0.353169330730319,0.00568268325895963,0.266359780761028,-0.138524183294031,1.74134312450339
664,1332,2.68186656917433,0.576738499007829,0.960796518772233,0.318583980867823,0.35015288800217,0.0158198055274223,0.0829100009532085,-0.310470045578111,1.32800646831941
665,1333,2.68501075080487,0.580551007742245,0.960689217209453,0.323607285676134,0.352195592675225,0.0235764654376305,-0.0903521108906711,-0.23682506725246,1.1790091487666
666,1334,2.68820814933895,0.584503452468086,0.960712885778326,0.327412578250282,0.357782624085088,0.0310565830205266,0.0347281893604941,-0.38158975641104,1.08378690310775
667,1335,2.69147757076899,0.588672044319355,0.960890860870298,0.32804336514588,0.365514988470429,0.0403310030055915,0.244737033210101,-0.365404437199058,1.10784134478077
668,1336,2.69478419615571,0.593064630553166,0.9612132860047,0.327504241102987,0.377060499902221,0.0496036713733924,0.37619376056791,-0.370014979589021,1.01064058103147
669,1337,2.69815260308517,0.597756197759941,0.961668703896492,0.327754870289854,0.39279330331339,0.0533617495419411,0.325588359067385,-0.448785791312055,0.449389852890426
670,1338,2.7015932509661,0.602739416026938,0.962184329728092,0.3295029133191,0.411188265183174,0.0543138338346492,0.396798270183924,-0.489062384800354,0.196650934608994
671,1339,2.70513400510798,0.608037217636145,0.962711911335569,0.334807914532707,0.434268600141239,0.0535060335526616,0.222154036936028,-0.432504722751263,0.136878559958847
672,1340,2.70876657633544,0.61364206039865,0.963256626041063,0.339085228375407,0.4583472919083,0.053589749541245,0.0868598697899536,-0.29185279337951,0.156420202488489
673,1341,2.71246393775137,0.619506054485372,0.963847913309555,0.340991866461417,0.482518381252495,0.0558433362494253,0.024880335848464,0.00903049451008896,0.232625540338501
674,1342,2.716207359698,0.625581194108682,0.964511931167743,0.341617095857947,0.505720826540443,0.0586856119179463,-0.149048087123726,0.105824159680151,0.2160204764987
675,1343,2.72000533009721,0.631790333902697,0.965247999565688,0.343958057146673,0.527098989934046,0.0616275672654347,-0.232123272075889,0.123437402736979,0.228621638559587
676,1344,2.72377106324101,0.637896553255909,0.966262121090519,0.344875129672193,0.542918948665345,0.0688394037119995,-0.442435979606767,0.145147342120415,0.369882810341289
677,1345,2.727861993545,0.644089927024046,0.967100090520965,0.352222219977771,0.55640042893067,0.0715381547003081,-0.402728800370458,0.0666655126549582,0.350692131315207
678,1346,2.73133861274302,0.649662484815256,0.969059512864902,0.353049144047193,0.559089511579601,0.0794738450016794,-0.603244922844879,0.0516773119137849,0.24341811169851
679,1347,2.73509787474113,0.655040314296521,0.969959122422769,0.352444858908919,0.553859519099013,0.0798186796717227,-0.789454172378023,0.0859451286121986,0.10879892508365
680,1348,2.73854459658457,0.659806798918239,0.971607793851318,0.347545128472936,0.537738377993392,0.0833357422985397,-0.743405241310561,0.174028831587298,-0.00110836277629562
681,1349,2.74185328405836,0.664111630607411,0.973129384505573,0.337963865402975,0.513355448693862,0.0856209372742968,-0.737292970861299,0.100684955968758,-0.162193907572553
682,1350,2.74484062571388,0.668027043095722,0.974578525188545,0.320765801953647,0.48643466785045,0.0864549425413443,-0.758595395610128,0.0110976355321445,-0.340105662410556
683,1351,2.74773460378876,0.671706520535044,0.975905671999989,0.303721448433062,0.458788107420081,0.0856689607560561,-0.737240143839629,-0.0250505526949224,-0.47400497068723
684,1352,2.75062958450667,0.675197143782582,0.97704132894734,0.289974151594192,0.433836835790226,0.082164574789025,-0.985302951586411,-0.0993500001992523,-0.575015871608955
685,1353,2.75356329960421,0.678547038321924,0.977930408469338,0.28111415459076,0.41118344500978,0.0739771910504145,-1.15076130878574,-0.288622113207406,-0.808934719381269
686,1354,2.75660036151566,0.6817474338595,0.978596977282574,0.27541144014231,0.389991197736602,0.0630542285495184,-1.04534939845321,-0.414244514225108,-0.955340948068459
687,1355,2.75968989216191,0.684929159140236,0.978947125088082,0.274469039780546,0.367985402819844,0.0509900513005304,-0.963042244826828,-0.521898829692696,-0.936924272229643
688,1356,2.76285230262117,0.688027950347286,0.979114509777895,0.27659813825257,0.348359585708016,0.0346558282261843,-0.486942359880529,-0.729524425306838,-1.03360261188336
689,1357,2.76610038492806,0.691024932041794,0.97913154498022,0.278377141746153,0.332389902163351,0.0196717458753524,-0.418615794804094,-0.488437252836587,-0.8373795084745
690,1358,2.7693365042633,0.693964966414394,0.979060189902399,0.275950113191808,0.32153328858918,0.00844824706198405,-0.534847041662206,-0.400551010970811,-0.640634381729491
691,1359,2.77248502977389,0.696836620342736,0.978944150886414,0.270666285863654,0.311364655374047,0.000165009048005748,-0.686808991422123,-0.43443806049959,-0.491088794873948
692,1360,2.77550123421521,0.69965074533728,0.978800993039399,0.264765728780038,0.303030043743049,-0.00683226097467846,-0.67960281662769,-0.465158026147232,-0.441423683731782
693,1361,2.77836056140875,0.702443687806441,0.97863927185015,0.259170928914654,0.296692667925143,-0.0109766935017254,-0.650424690551734,-0.450555887825064,-0.236401754523236
694,1362,2.78105884158095,0.705260533486539,0.978475751587159,0.253874512588109,0.292275265022395,-0.0141028946402767,-0.485914211513743,-0.607691925242882,-0.185830964133613
