,Frame,CoM pos x,CoM pos y,CoM pos z,CoM vel x,CoM vel y,CoM vel z,CoM acc x,CoM acc y,CoM acc z
0,1520,-0.0594667514949802,-0.0293127270012902,0.971685450219756,0.034186486697002,0.00759987467028953,-0.000376151266511087,0.0867377354608155,-0.00756489658195424,0.0731807862245188
1,1521,-0.0591006695033351,-0.029216615769532,0.971666955694202,0.0361572205244872,0.00772905041981839,-0.000417311449549768,0.0721181757800184,0.0573861054449394,0.0296598582231806
2,1522,-0.058727128937683,-0.0291117617013495,0.971650500522588,0.0367038170397826,0.00808763640769787,5.8833906896682e-05,0.0752141143731719,0.0258418044937426,0.0543583735419435
3,1523,-0.0583545671121176,-0.0290011690846079,0.971636115819865,0.0366580124132623,0.00851279792632962,0.00011911629550432,0.0578334785736031,0.0191595975624014,0.017468489051434
4,1524,-0.0579844622806489,-0.0288815306249569,0.971622192565342,0.0364235226896457,0.00891929365034549,0.00011169590387141,0.0651405343745618,-0.000433876243178254,0.00634249501874873
5,1525,-0.0576166758955923,-0.0287532814671307,0.971608358779508,0.0360384138006641,0.0092247191677234,-6.92451485427837e-06,0.0838833025219516,-0.0440238626040817,-0.00559098872635328
6,1526,-0.0572111827583424,-0.0286262821960192,0.971590404194709,0.0363544303727478,0.00922772581140315,-0.000417480106890624,0.0776399075445384,-0.00959690397846177,-0.0261637336397139
7,1527,-0.0568287214004642,-0.0285175965751684,0.971576758618801,0.036155054831157,0.00895350216432518,-0.000142639531255066,0.126976062321214,-0.0323004275799478,0.0120544577634052
8,1528,-0.056431538287544,-0.0284034193283753,0.971563702937011,0.0372291697961025,0.00891613456104034,-0.000496842577664428,0.0296314957001577,0.0155072080134516,-0.0158813683325905
9,1529,-0.0560365793731752,-0.0282745387400052,0.971551947026481,0.0370173106931315,0.00968509968745726,-0.000467315100352206,0.067590800861702,0.000127231774130949,-0.00730971529333781
10,1530,-0.0556312874230066,-0.0281334688120882,0.971539291606536,0.0376502723394231,0.0106400768779861,-0.000912739712007864,0.00296568584083217,0.0160720619646612,-0.0324431844576094
11,1531,-0.0552094811788715,-0.0279874321866857,0.971523943824449,0.0393257467637364,0.0115152228586089,-0.00125905557944691,0.01495666737847,0.0220825185091617,-0.0138795598752546
12,1532,-0.0547822803316795,-0.0278379046506845,0.971507463052243,0.0400312391901254,0.0122849859237188,-0.00154798751185028,0.00270437595018549,0.00511499833003826,-0.0180476325559802
13,1533,-0.0543391147846443,-0.0276933117411684,0.971488162891473,0.0415144882013909,0.0124357675463344,-0.00208158503591644,-0.0123993053193148,0.00530437214810584,-0.0305592701721282
14,1534,-0.0538943989734787,-0.0275452254185008,0.971467252369956,0.0418214423526826,0.0126647978169381,-0.00239122664651695,0.0385132796726253,-0.0644439991623988,-0.0353860599238732
15,1535,-0.0534635240282374,-0.0273955263550284,0.971446041931883,0.0406621641874632,0.0125336415045176,-0.00245622909662112,0.0318505601769179,-0.151243436464401,-0.0321201148467418
16,1536,-0.053024387171306,-0.0272770137188342,0.971424576626683,0.0404355222487266,0.0104072035372078,-0.00243670974278388,-0.00635270622284294,-0.0612063230813778,-0.0104474108269715
17,1537,-0.0525799547663073,-0.0271835148413063,0.971402370325219,0.0407485699317726,0.00829820079213411,-0.00263851599438252,-0.0166863543684353,-0.0739015768031016,-0.0228691660934208
18,1538,-0.0521265524871638,-0.0271106284220767,0.971379314126019,0.0411710536162852,0.00647736305493474,-0.00256951304640977,-0.0340090534649372,-0.0712925203026813,0.00301736686756638
19,1539,-0.0516627763463666,-0.0270508729171824,0.97135572336296,0.041902264459435,0.00479119141310211,-0.00279593644974269,-0.0250660554039647,-0.0918329940552861,-0.0160893907699538
20,1540,-0.0511913047078936,-0.0269996259103196,0.97133185430035,0.0427464796273192,0.0035742326170103,-0.00274456535948414,-0.0100920561080146,-0.1002623089862,0.00158847440577904
21,1541,-0.0507147156949877,-0.0269397921459135,0.971308678081416,0.0441755533536947,0.00330035851685179,-0.00242490266192994,0.0192776831401357,-0.136265038203351,0.0286385288858662
22,1542,-0.0502303103970674,-0.0268893963320671,0.971286498036285,0.0457599692439741,0.00161852386551044,-0.00218909198631032,0.0417344656562569,-0.0991739314305244,0.031631184694295
23,1543,-0.0497274135916383,-0.0268380222392899,0.97126504787403,0.0479767068256397,0.000731141563906633,-0.0019703602016308,0.0429009985043558,-0.110277159903389,0.0388983424052501
24,1544,-0.049200138226382,-0.0267936554208285,0.971242564629485,0.0501800028943162,-0.000438884797030255,-0.0021309001860925,0.0334071166372038,-0.106369756752379,0.0122185910894851
25,1545,-0.0486678474074157,-0.026736569757086,0.971222712965424,0.0507074841694002,9.19801694577838e-05,-0.00147502929620986,0.103421632883287,-0.0944509274059848,0.0496479184033163
26,1546,-0.0480894902189767,-0.0266701938037594,0.971201873167516,0.0516412838602679,3.79718646717781e-05,-0.0012910337644056,0.03279115290437,-0.053230419137691,0.0315219978844802
27,1547,-0.0475149478686592,-0.0266222249171098,0.971183109347546,0.0528483583971165,0.000473116405257104,-0.00119880265283243,0.0495433417576025,-0.0522609842551146,0.0219228280392319
28,1548,-0.0469267552775258,-0.0265649923489275,0.971166488076302,0.0535781564505279,0.00123579777433359,-0.000799517582449322,0.0730230020856082,-0.108652677222168,0.0361174825815658
29,1549,-0.0463291326524862,-0.0265067116947341,0.971151363932222,0.0537477382277511,0.00163670230397143,-0.000749271531686805,0.0295589839841215,-0.0529881219970115,0.00666851978159483
30,1550,-0.0457354792191492,-0.0264353504375961,0.971137356168946,0.0531758885784923,0.00291989613590693,-0.000461717789882009,0.0274463412799593,-0.0530545576900318,0.0111619885447302
31,1551,-0.0451376843250484,-0.0263663109953971,0.971121420677649,0.0538436959393453,0.00277973668347598,-0.000874231399601902,0.010958886520359,-0.0422733115951927,-0.0249402828542549
32,1552,-0.0445451190814796,-0.0262907773395787,0.971104942875954,0.0535179694447165,0.00297608145479404,-0.000790766163043879,0.0393451822889252,-0.10602023993897,-0.0042637688775306
33,1553,-0.0439499274952005,-0.026220207026418,0.97108807060974,0.0540011917763222,0.00280385808707169,-0.000875738467969739,0.0293242879129811,-0.0173274202881195,-0.00383698533068404
34,1554,-0.0433518733773178,-0.0261470447086631,0.971069664507479,0.0544011263794098,0.00258412930783184,-0.00124539416475111,0.00565100963538334,-0.0843489997715769,-0.0276019252470713
35,1555,-0.0427504101759513,-0.0260720674940708,0.971048568257027,0.0554169223104614,0.00239768443617702,-0.00141513649388002,0.0421976035508007,-0.0859967122082887,-0.00825363130524832
36,1556,-0.0421370486183876,-0.0260080330145094,0.971024427821106,0.0567374355546989,0.00195506554477212,-0.00188116185421342,-0.00692087970330877,-0.0510983872484565,-0.0225175549959885
37,1557,-0.0415289055399863,-0.0259408310326519,0.970996827617772,0.0573191250772108,0.00236978238739488,-0.00225956741292177,0.000641455881392949,-0.0264924274699111,-0.0261010403617094
38,1558,-0.0409248344823245,-0.0258803466597821,0.970964336905358,0.0578625483250141,0.00262490598186648,-0.00302630109281461,-0.0327691902121941,-0.0115560895195015,-0.0561007827906482
39,1559,-0.0403401394004957,-0.0258136826463748,0.970929530077692,0.0568062418954295,0.00330653999453098,-0.00324032633633852,-0.00288890385101011,-0.0278553912171417,-0.038650112617517
40,1560,-0.0397643115236153,-0.0257498895772868,0.970892191654364,0.0563048559171613,0.00379667231118269,-0.00366683518315504,-0.0330733484591345,-0.0624835972857,-0.0451945467710348
41,1561,-0.0391936476770399,-0.0256987268548965,0.970851894678871,0.055404279933669,0.00425213209191743,-0.004207492171327,-0.0466976689194066,0.0309994938755479,-0.0597693018301481
42,1562,-0.0386308719664679,-0.0256633329798259,0.970813131661471,0.0542043721743708,0.00333938701605666,-0.00366522145420493,-0.000848678806410884,-0.0536056268921444,0.0158904200050835
43,1563,-0.0380604674619576,-0.0256474737326003,0.970775511461126,0.0539578611655376,0.00243740276092353,-0.00399041266662488,-0.0259026076369305,-0.0405751653666876,-0.0337951802353126
44,1564,-0.0374776251587257,-0.0256518763959816,0.97073648680045,0.0544741075896059,0.00114112387726366,-0.00415219872254542,-0.0273932467428353,-0.0427988620617616,-0.0169536438381896
45,1565,-0.0368730069631217,-0.0256725181852713,0.970696399083436,0.0561604427593826,-0.000667538309165497,-0.00411329761522599,0.0012320202799937,-0.072942688262007,0.00942278537036096
46,1566,-0.0362204576100941,-0.0257019565290952,0.970654126820087,0.0575118546700091,-0.00337597116506264,-0.0039114024991409,0.00954959715152626,-0.0528382836557283,0.0219169765603691
47,1567,-0.0355856119234529,-0.0257793118157595,0.970616611507266,0.0581128954776471,-0.00533131130125968,-0.0035572288138516,0.0328077373935267,-0.0201011427194403,0.024290282463283
48,1568,-0.0349374017579233,-0.0258574437608685,0.970580872069747,0.058895200136432,-0.00593044089291122,-0.00317960291415282,-0.046368012656877,-0.0274799602812121,0.0378252350681072
49,1569,-0.0342777876557307,-0.0259325658155419,0.970545649031127,0.0603131175534382,-0.00696203087142678,-0.00291342565297867,-0.0591436935309022,0.0483171031131898,0.0404822006124802
50,1570,-0.0336208364865579,-0.025995806537632,0.970512407260447,0.0606636457005118,-0.00726304827434188,-0.00243679188912883,-0.0356640261857635,0.0215652296073744,0.0430939552810271
51,1571,-0.0329682521797051,-0.0260416551439674,0.970479482020677,0.0610377856379492,-0.00687225239753813,-0.00228853902973029,-0.033839798696503,0.0296317259152139,0.019949691521536
52,1572,-0.0323245349146895,-0.0260649525988793,0.970445042037289,0.0608351100572602,-0.00602059162515002,-0.00230267293791708,-0.0400641279341272,-0.00567276390419454,-0.00287802256416263
53,1573,-0.0316834262018718,-0.0260761075879947,0.970406647335386,0.0607491685526665,-0.00488672714004954,-0.00270953159059268,-0.0588525496883939,0.0129599608972745,-0.0260714139580727
54,1574,-0.0310623939477842,-0.0260791312039721,0.970366863496409,0.0592748330345189,-0.00351831340014849,-0.00294032373218071,-0.0457472103427819,0.0348023148619401,-0.0360469416699295
55,1575,-0.0304583418888729,-0.0260726704839648,0.970324900862888,0.0575615672041692,-0.00173934167605038,-0.0032009207277065,-0.12033586363398,0.0496649320575927,-0.0289470849637245
56,1576,-0.0298730848353558,-0.0260548935064739,0.970284250068182,0.055956173085597,0.000126880667456053,-0.00291697627236705,-0.0637557182658736,0.0325500338167592,0.00600949287124146
57,1577,-0.0292963746542682,-0.0260258385759114,0.970246581947551,0.0547247602921126,0.00158829793663313,-0.00248243804297137,-0.0510061837318863,0.0428293313626514,0.023764734749029
58,1578,-0.0287178500423365,-0.0260044721235959,0.970210416791295,0.0543969434687268,0.00159804265723939,-0.0022069503718426,-0.0691869248363021,0.027275730326717,0.0294839849251131
59,1579,-0.0281345077758418,-0.0259914361208425,0.970174494583912,0.0543136751213032,0.00144912215976552,-0.00214424821519519,-0.0643272652861846,0.0155595022402431,0.0128048456279936
60,1580,-0.0275487511568198,-0.0259888644541037,0.970138043380086,0.0534163304032758,0.00164537001549019,-0.00230764289480157,-0.0973036724839611,0.00706520016334743,-0.0135955112439218
61,1581,-0.0269625860118794,-0.0259962760923783,0.970097057633815,0.0527842343961127,0.00146773061676231,-0.00312916807951146,-0.145353717557613,0.0525964940586302,-0.0603222099459081
62,1582,-0.0263910021861209,-0.0260083981259898,0.970053456324272,0.0513100519767087,0.000942527379203078,-0.0035506146700763,-0.0934247186129507,0.0353711077894359,-0.0561164257560542
63,1583,-0.0258340304393349,-0.0260132759605828,0.970007405479897,0.0497020851600291,0.00115287404822778,-0.00416254572394876,-0.121491946292604,0.0181595414247614,-0.0767250354623585
64,1584,-0.0252890410519479,-0.0260268847878299,0.969957845895471,0.0483987366699119,0.000224266415899557,-0.0048231865340392,-0.14916823778061,0.0602092878289712,-0.0737816388716358
65,1585,-0.0247628836439217,-0.0260342009782721,0.969910697446501,0.0467092112700294,0.000616893133318865,-0.00466539503653927,-0.0924053747360783,0.0732455176948238,-0.0261938883249375
66,1586,-0.0242219274340589,-0.0260151676249845,0.969865596217835,0.0459459181472949,0.000299981517577546,-0.00395345116281061,-0.0350303610284575,0.0316657397193385,0.0272283897476696
67,1587,-0.0237111680906278,-0.0260365451062667,0.96982767205755,0.0461857192469972,0.000181329294714051,-0.00348885958060649,-0.036860855172597,0.070842968515567,0.0275006748783107
68,1588,-0.0232011515043642,-0.026052343563312,0.969794509037103,0.0470671677458474,0.00020474429868041,-0.00266681375631998,0.0229155070987744,0.054345619946577,0.0596904879485813
69,1589,-0.0227034090552523,-0.0260561430745029,0.969767623716531,0.047045660244513,0.000698240752345955,-0.00173500153724064,0.0371490767140458,0.084657891970082,0.0588246467022923
70,1590,-0.0222176788123078,-0.0260562080411288,0.96974498567794,0.0463343890071828,0.000990295281465249,-0.00106297187993031,-0.00559685103675427,0.0890816894144148,0.0467258922642056
71,1591,-0.0217414860787469,-0.0260528211713279,0.969723174087297,0.0457376815775078,0.00106567895065412,-0.000944149155600622,-0.0136333833765827,0.0303641040115374,0.000854241392228173
72,1592,-0.0212772945298548,-0.0260703946217809,0.969699015785506,0.0449378265811788,-0.000155641205703171,-0.00113335126816804,-0.0488365731851374,0.076300014690081,-0.0224132241414708
73,1593,-0.0208218650698071,-0.0260972163711522,0.969667590280246,0.0437781540040923,-0.0012734454675421,-0.00195848840635503,-0.111775722506615,0.0334092181048697,-0.0708521147655807
74,1594,-0.020387628921552,-0.0261467645745798,0.969632534785208,0.0420180339596207,-0.00280857101192005,-0.00277649023501917,-0.0896329267410106,0.0263140333777082,-0.0881016892061659
75,1595,-0.0199632122908932,-0.0261995891587872,0.969593537903196,0.0401274946565256,-0.00343147199926562,-0.00348315394323113,-0.0882555312778051,0.0352992116541386,-0.085793186889192
76,1596,-0.0195454846982028,-0.0262561646239085,0.969552582293369,0.0384975057858706,-0.0043049326353539,-0.00385228661592277,-0.10581812162789,0.0635020215602971,-0.0552692795086989
77,1597,-0.0191259310927533,-0.0263101424689109,0.969510469739331,0.0377531520647123,-0.00460700348942504,-0.00444049647140665,-0.112029205973219,0.0948507045491659,-0.0632386641310822
78,1598,-0.0187202951373179,-0.0263504156204267,0.969473081422663,0.0363174813908311,-0.0038677912662112,-0.00382771426839638,-0.0772160217826609,0.0507756522119573,0.0114136796392191
79,1599,-0.0183144233275597,-0.0263804691578734,0.96943794603834,0.036352547329771,-0.00292944708605204,-0.00388022400906808,-0.0981040614803816,0.0833811029220978,-0.0126409834169517
80,1600,-0.0179135555129263,-0.0264022224559929,0.969404690382316,0.036343371676585,-0.00195941580739105,-0.00360245541341943,-0.0903558745442867,0.0594059820593612,0.00509324609537949
81,1601,-0.017527689400327,-0.0264135158674735,0.969375573712629,0.0354530598072439,-0.000723304587455507,-0.00283180144539503,-0.0287645767494287,0.104642515861401,0.0327892528699827
82,1602,-0.0171505266502479,-0.0264150832400324,0.969347885907895,0.0351290170927396,0.000398358416148269,-0.00273505536945954,-0.0837216225562044,0.0722507728420129,-0.002055214649791
83,1603,-0.0167766988561391,-0.0264100046907828,0.969317498859663,0.0355966460176395,0.00116415248072991,-0.00275479380928057,-0.0625554291277027,0.0454355058303037,0.00149737721569817
84,1604,-0.0164118140396037,-0.0264110136529911,0.969286695498367,0.0352150013075107,0.00113241485798675,-0.00255161861503012,-0.0320173802143065,0.0636065485314208,0.00576585462685733
85,1605,-0.0160486668302,-0.0264231340017837,0.969254703794436,0.0353026054241822,0.00022458863184474,-0.0025738154216815,-0.0155291411254817,0.0419800302963325,-0.00277918834262558
86,1606,-0.0156687093453611,-0.0264294980903749,0.96922118471798,0.033984751625533,-0.00124524892387804,-0.00194600813568213,-0.0080933004329562,0.0165126685825143,0.0313095421707655
87,1607,-0.0152923481188073,-0.0264791785315681,0.969187830769325,0.0354405950128789,-0.00248983266056837,-0.00229450057476256,-0.0244686851754104,0.0482300637109463,0.000144305747260863
88,1608,-0.0149083223475548,-0.0265207619753824,0.969154950049265,0.0359653987852848,-0.00324667964497896,-0.00209256575509404,-0.00989706683929305,0.0155107087120807,0.0177843226767799
89,1609,-0.0145226496119558,-0.0265542162188099,0.969125154876208,0.0359760709574439,-0.00375281897814986,-0.00160090316665084,0.0287165163834974,0.0634811668811211,0.0358865154076956
90,1610,-0.0141228252283431,-0.0265719539438971,0.969098141984427,0.037046061346259,-0.00360398127262701,-0.00116038062269991,0.0163418866281386,0.0405902615890306,0.0523061898770623
91,1611,-0.013717261181609,-0.0265607781728843,0.969074131636577,0.0374392833253107,-0.00249894163995136,-0.000771225189552488,-0.00682177647660583,0.0639614042811184,0.0403402012625073
92,1612,-0.0133067705117618,-0.0265303200031599,0.969050853895839,0.0384026128220983,-0.00179810147565306,-0.00044818371501138,0.028791234615277,0.0609643249067569,0.0426903905878814
93,1613,-0.0128813159799266,-0.0264831371678606,0.969026344929037,0.0398155525912267,-0.000318062537653152,-0.000450764359074559,0.0338266575600633,0.0412532743553274,0.0205393986947749
94,1614,-0.0124522720116018,-0.0264323547352791,0.968999286828466,0.0405562194630312,0.000701711453280955,-0.000656326389346832,-0.00433058142762028,0.0395798668151875,0.00214694985069656
95,1615,-0.0120220335815237,-0.026378208218991,0.968970123913349,0.0404998853077043,0.00171411747702113,-0.000507760653355682,-0.0255042589076789,0.0777515777230748,0.0268053142565812
96,1616,-0.011605886179676,-0.0263187362993883,0.968943194329419,0.039780000405522,0.00264787645217248,-0.000108461167037711,0.0127170467270384,0.0942597870908989,0.0327093277210545
97,1617,-0.0111879567177808,-0.0262502745743464,0.968913762174752,0.0398284647039899,0.00399791712152006,-0.000463201273180263,-0.0094828635484001,0.0312949288457144,-0.0100772183779365
98,1618,-0.0107587750490625,-0.0261874043584198,0.968880703474896,0.0410374272397009,0.00416597944468286,-0.000570724336080513,0.0253807487194918,0.0365617467226226,0.0158645430340485
99,1619,-0.0103122220922028,-0.0261093435423739,0.968834888112219,0.0418546449854489,0.00430520733720801,-0.000905855143490809,0.007313851067463,0.0508946418755278,-0.00293215708259565
100,1620,-0.0098660679058321,-0.0260671497888575,0.96879658129796,0.0422162373600221,0.00437013300271667,-0.00113528309011783,0.0223924228029209,0.0316125384716639,0.000195203563307582
101,1621,-0.00941767209758672,-0.0260294505725934,0.96875405254294,0.0426663745517994,0.00465930852017319,-0.00186207981473824,-0.0128718019666101,0.0751188168892476,-0.0210462866556838
102,1622,-0.00896595617738297,-0.025986991014834,0.968708235355401,0.0423933678480319,0.00455954956955015,-0.00223706170108872,0.00409010446310136,0.0489109018239648,-0.00786946916659968
103,1623,-0.00851239683305442,-0.0259347189602994,0.968660691672988,0.0425815420255308,0.00506199760062896,-0.00283673218039109,0.00482945104123967,0.0350203182947957,-0.0316489749119748
104,1624,-0.00804748145232025,-0.025893570619546,0.968612813785725,0.0429750044004029,0.00415152674853671,-0.00305479553911851,0.0201817201681291,0.0581205912079476,-0.00385480752765912
105,1625,-0.00757949240490535,-0.025838179697589,0.968566078774683,0.0433128708994136,0.00511263286570222,-0.00335098936722088,0.0201106297101569,0.0327197045298994,-0.0263096200501331
106,1626,-0.00708348456113226,-0.0257685940497277,0.96851507377021,0.0431239420072132,0.00479053116437278,-0.00354691079934213,0.0154796236140056,0.0546321447110834,-0.0259550860880337
107,1627,-0.00661911477345014,-0.0257216093907415,0.968467660988561,0.0431494870367947,0.00545441423627253,-0.00371829575381047,0.00019299858225875,0.0619368903202339,-0.0241360946510028
108,1628,-0.00617012398601854,-0.0256715391935904,0.968422958427814,0.0425016334829612,0.00548542232469042,-0.00363752050806076,0.00456100371695653,0.0631551626869165,-0.0123171840897163
109,1629,-0.00573144427340136,-0.0256122041894938,0.968380457436651,0.0419160915190286,0.00578999946089789,-0.00351235368700108,0.012420590840358,0.0322550738296684,-0.00695834700169847
110,1630,-0.00529918051268148,-0.0255487570853466,0.968339306716941,0.0420744349631252,0.00599432183244044,-0.0034920054857772,0.0185707976687381,0.0291437090693984,-0.00634581602396284
111,1631,-0.00486105964111177,-0.0254779991177862,0.968298575391114,0.0426538583917026,0.00635044085519702,-0.00342758462626993,0.0408260303332629,0.059999601413889,0.00341002301981305
112,1632,-0.00441799509737264,-0.0254009048931498,0.968260174771647,0.0430040180434899,0.00625768671952753,-0.00311802334636149,0.0570318055950591,0.0220634074407974,0.0195473324213908
113,1633,-0.00396356628587807,-0.0253222807528682,0.968222294913272,0.0442131816031953,0.00617340639775134,-0.00310968854622428,0.0789625232578229,0.00291489621890783,0.00514395000182515
114,1634,-0.00349519468210849,-0.0252359101053203,0.96818500519158,0.0450699523328505,0.00729989096998279,-0.00291414207579182,0.0981669582490313,0.065703399851064,0.0104121329586609
115,1635,-0.00299876980441885,-0.0251200455911847,0.968144281299862,0.0466092614342008,0.00927950377506988,-0.00324473360313045,0.0196312580220359,0.029341769316752,-0.0115942996029458
116,1636,-0.00249339583208694,-0.0250022410690671,0.968102399909639,0.0472418243572027,0.00950160230130331,-0.00316981292892098,0.0489166482725406,0.0566362309366319,0.00032596860208698
117,1637,-0.00195778546159383,-0.0248550726074995,0.968067824678604,0.0462654979263464,0.0102609000149431,-0.00271959975203429,0.0815320329929517,0.0455348409265453,0.00688029504507403
118,1638,-0.00145106926658606,-0.0247335482189594,0.968027103815765,0.0468629002383208,0.0111436306086372,-0.00286730711847462,0.0238177635915126,0.0779389702357286,-0.00982686763500137
119,1639,-0.000944550092277911,-0.024602594252904,0.967987327229861,0.0475092751328825,0.0122924474094075,-0.00234181676033893,0.065114032505624,0.0295538573030197,0.0313162501078936
120,1640,-0.000434047431353716,-0.0244827305169547,0.967948596621439,0.0479775460034935,0.012161438381694,-0.00208030990488731,0.0789377693111916,0.0556989660128337,0.0189012577203621
121,1641,8.62021341195765e-05,-0.0243619919615332,0.967908278423992,0.0487659664778209,0.0120998326313771,-0.00230024475900283,0.00386014614421743,-0.0401613100194764,-0.0071944320913012
122,1642,0.000602108724711036,-0.0242532681106364,0.967866766463742,0.0484621431385364,0.0113011977661574,-0.00203751836404146,0.0205931432380097,0.00016209006594413,0.0201416328018453
123,1643,0.00110841111780608,-0.0241566339383936,0.967824490221085,0.0485526126609754,0.0106132092672103,-0.00209299685849927,0.00798809659726728,0.0385746171112409,0.00681140560903387
124,1644,0.00161200090385138,-0.0240495997200099,0.967778506954602,0.0492949957765337,0.0108698970441418,-0.00249779751289454,0.0122171029542909,-0.0166299308713929,-0.0148969708236547
125,1645,0.00211971686143606,-0.0239498928013439,0.967726745445176,0.0498387718052185,0.0100322676015143,-0.00327822405471524,-0.00787966639832591,0.0109759755786571,-0.0441736918178999
126,1646,0.00265020085669643,-0.02382803212909,0.967666587867432,0.0491240230544449,0.0099328755639572,-0.00347527765136608,-0.0336093219977653,-0.0511806732213451,-0.0197893059871697
127,1647,0.00314047913914804,-0.0237542064905989,0.967608768385292,0.047790261497277,0.00820791824687574,-0.0036900013357581,-0.0312792765390576,0.00407242332424316,-0.0211136553458832
128,1648,0.0036181763455376,-0.0236919793615735,0.967550016680494,0.0466131409603223,0.0066739532920408,-0.00407333918861649,-0.0611972700606425,0.03366404644875,-0.0328338661357081
129,1649,0.00408527613825141,-0.0236148373453865,0.967489216220918,0.0458537274748385,0.00704797338982839,-0.00461684068137808,-0.0576853180724378,-0.0031926214156355,-0.0480732115662728
130,1650,0.00456125987705924,-0.0235354666173316,0.967423520616136,0.0466747666603217,0.00713266909311487,-0.00530373348483334,-0.0455555788670833,0.0263097739651451,-0.0373558148690214
131,1651,0.0050437012929736,-0.0234438727389803,0.967356069361345,0.0472454230011009,0.00762997230313306,-0.00566377414548904,-0.0295774310174121,0.0154908674055467,-0.0251647346483762
132,1652,0.00552611818597347,-0.0233463366085748,0.967290654070566,0.0469210707329968,0.00746442172705818,-0.0053256139041091,-0.0170979496914515,0.0327442064899097,0.0213701136389477
133,1653,0.00600652042973846,-0.023247033657506,0.96722989042723,0.0463463310906807,0.00738530676634068,-0.00503140834357006,-0.01056294391564,0.0212468270950621,0.0146103746515029
134,1654,0.00648514019346959,-0.023141416205647,0.967173679475809,0.0460568958782402,0.00723661933772806,-0.00438925772749756,0.011497691020167,0.00855772360964769,0.0399912667326034
135,1655,0.00696840853888327,-0.0230325331724338,0.967122042148115,0.0458042523139119,0.00730353553749662,-0.00384254591675154,-0.00386711425730173,-0.00189628200950336,0.0423559269152772
136,1656,0.00744960632639804,-0.0229218749178984,0.967074073787433,0.0457752191654371,0.00766978337173358,-0.00347519447151496,-0.0061812378098876,0.0224500947572837,0.0310923111903994
137,1657,0.00793033913696301,-0.0228259156528235,0.967030117470018,0.0455606939550006,0.00652552025548671,-0.00280467070513271,0.0305766196961802,-0.00539733845986119,0.0553537016803746
138,1658,0.00841691441801039,-0.0227352673281752,0.966987694733926,0.0458200588143938,0.00632055500531965,-0.00280368796189619,-0.0185521486806868,-0.00983472666006286,0.0132438485268782
139,1659,0.00891111502854582,-0.022648696954578,0.966943348101407,0.0462511644291994,0.00613176485956936,-0.00303062789232073,-0.0580079461886388,-0.0114486393270198,-0.00170273458228681
140,1660,0.00940681097127039,-0.0225703623508001,0.966897961475762,0.0457866527770547,0.00564937316734212,-0.00315700820744697,-0.0811697346691944,-0.0480076961791887,-0.0103604870361127
141,1661,0.0098998321972378,-0.0225035056335347,0.966852110933258,0.0450759803658251,0.00508491764073501,-0.00343796836772045,-0.0779795311752914,-0.0643599108311122,-0.0289726509971948
142,1662,0.0103946396543565,-0.022449739903647,0.966802139637921,0.0447219759155652,0.00436640313257917,-0.00440536096521142,-0.157602674574422,-0.0618241047843865,-0.0709290890262555
143,1663,0.0108782129942285,-0.0224005278333907,0.966748807148692,0.0436884188964847,0.00318247778004151,-0.00476618377263527,-0.15734404605181,-0.0875372771884914,-0.0358891221517963
144,1664,0.0113591268572429,-0.0223707465016394,0.966694198732238,0.0438161307455409,0.00126957179878949,-0.0050833072562599,-0.100150861956855,-0.0496715061097231,-0.017518841234561
145,1665,0.0118463883693361,-0.0223436274619351,0.966638538685977,0.0444009495386617,0.000296973054596989,-0.00556298761772319,-0.0995754155560254,-0.0714434022927945,-0.0255093258232247
146,1666,0.0123723790048851,-0.022297635375634,0.966575795581407,0.0457815626318312,-0.000189880799384958,-0.00589707264585646,-0.0869816294202228,-0.0273355672912524,-0.00508890366754575
147,1667,0.0128759367285512,-0.0222639390603847,0.966515573281542,0.0467400800361786,0.000532065162150967,-0.00611878254804533,-0.0653536435605549,0.00251305311159741,-0.00691188729408982
148,1668,0.0133877850314597,-0.0222083827214832,0.966454217059818,0.0480578315895672,0.00168688571222472,-0.00626741962073819,-0.0766476077862383,0.014291633387367,0.00739902999918126
149,1669,0.0138998354561226,-0.0221317661790541,0.966393975133259,0.0485496912585831,0.00289627822111874,-0.00598141742668875,-0.0589681034570336,-0.00135092312135315,0.0315474910030414
150,1670,0.0144214429865642,-0.0220521061403626,0.966332164050248,0.049115362391572,0.00327178959220568,-0.00644630090319556,-0.10190712505841,0.0244874225862109,-0.0167826985298477
151,1671,0.0149430098010725,-0.0219718051090858,0.966269595891961,0.0488751868809034,0.00378345806640811,-0.0065551895459328,-0.0782981596459492,0.000866165581151091,-0.01056923763437
152,1672,0.015448895822884,-0.0219022576806931,0.966211883977156,0.0477860168595485,0.00335613941877151,-0.00576712144134404,-0.0110647068930282,0.00916662942370872,0.0378206252335124
153,1673,0.0159622125151098,-0.0218390917725665,0.96615483720577,0.047922288618322,0.00299029615283809,-0.00596666312404087,-0.071100250226179,-0.0466888254870271,-0.00352000636967608
154,1674,0.0164739761368103,-0.0217909091061655,0.966101584565182,0.0475281865454395,0.00233786713021428,-0.00506792338860136,-0.0066899556002934,-0.0545098114628923,0.0607352266508778
155,1675,0.0169877673420525,-0.0217659102301165,0.966057803038322,0.0468548815892027,0.00121948047255058,-0.00445732784617265,-0.0265141586286816,-0.0447886965905243,0.0493787542371871
156,1676,0.0174951424155169,-0.0217504057794155,0.966015649796165,0.0462965651294139,0.00069819609571307,-0.00348391043478627,-0.0359807070543438,-0.0486260035337327,0.0757196188369243
157,1677,0.0179978596120083,-0.0217446368600907,0.965976946337049,0.0462527178568998,0.000169190302330489,-0.00324230720418331,-0.0469643321558933,-0.036772045801004,0.0326851131565396
158,1678,0.0184908607687823,-0.0217312410471688,0.965939899066218,0.0455845835384387,0.000729671970064601,-0.00291241029328112,-0.0592995546039825,-0.0401757155540752,0.0289002512387861
159,1679,0.0189765030079747,-0.0217185786268318,0.965903389298638,0.045517166810547,0.000483193339637387,-0.00271570466594416,-0.0205651539503588,-0.0516454547301735,0.0252566616468668
160,1680,0.019466200475357,-0.0217058060499395,0.965866163732625,0.0458718950623747,0.000493547798130201,-0.00270348204634777,-0.0245711740788198,-0.0169723470153798,0.0247535782339079
161,1681,0.0199715655188599,-0.021695797860928,0.965825396658031,0.0469683870461843,2.09308159422496e-05,-0.00315288204174001,-0.0282324232396531,-0.0216514007672338,-0.00202688880043962
162,1682,0.0204869063768554,-0.0216868181630409,0.965782103010685,0.0471382231803693,-9.47235083617161e-05,-0.00320965547264364,-0.049332108347449,-0.0223477091220325,0.0140355950405366
163,1683,0.0210199078249751,-0.0216793854239517,0.965735051352016,0.0477463276321483,-0.000221133093548531,-0.0036232476955951,-0.0576015931520938,0.00304559151567914,-0.00797512813485785
164,1684,0.0215656336875254,-0.0216764578475789,0.965682643799782,0.0479852487192592,-0.000599391528622106,-0.00433638433516373,-0.116730401810986,0.00104798350873504,-0.0347584384307551
165,1685,0.022113141506158,-0.0216750140864996,0.965624649877989,0.0476900683974772,-0.000929966728319618,-0.00515200893284552,-0.118681021986308,-0.0228579250297991,-0.0625372329978195
166,1686,0.0226819759503233,-0.0216696247720189,0.965557584969188,0.0469323365103275,-0.00189091876960831,-0.00567207796381379,-0.142727952569894,-0.0124604295429042,-0.0465211616081886
167,1687,0.0232270802230048,-0.0217096920639472,0.965491163432232,0.0464614973216913,-0.00335274226450422,-0.00621303179366666,-0.100255066194158,-0.0807498959139871,-0.0553001521097977
168,1688,0.0237624303107759,-0.0217685779772538,0.965425161838599,0.0463359426441071,-0.00435443030907406,-0.00664697389500932,-0.0518117544664215,-0.0717768225680942,-0.0592252656211406
169,1689,0.0243000284459981,-0.021841485218711,0.9653584433589,0.0473339029613185,-0.00579686781828027,-0.00682424705109737,-0.0279549577048348,-0.0512325131704667,-0.0194275515172189
170,1690,0.024842638562269,-0.0219273517680696,0.965294076644546,0.048826462828014,-0.00736303484706569,-0.00661151194097515,0.0118139720616296,-0.0220145285325148,0.0180939301573594
171,1691,0.0253979942622057,-0.0220213992555816,0.965231573098804,0.0510140743820134,-0.00897892276391567,-0.00666933254993791,0.0471332641837429,-0.0457841149309653,0.0105224923601322
172,1692,0.0259752764790812,-0.0221236533843615,0.965172622638684,0.0529125665043482,-0.0097238690569688,-0.0058705251590336,0.0448095608139301,-0.0608786938918219,0.0778853319368392
173,1693,0.0265648809422113,-0.0222456151160916,0.965119045895871,0.0542344862613092,-0.0119028564783219,-0.00514979995170355,-0.0137756774838034,-0.0625318927143713,0.0871049959480829
174,1694,0.0271640910289954,-0.0223680643094012,0.96506856968785,0.0554934712954823,-0.0123621724071787,-0.00461672097818735,-0.025697881023279,-0.0280918527847927,0.080657611527935
175,1695,0.0277629067556897,-0.0224908472658982,0.965021227807695,0.0554536156121585,-0.0134591215025562,-0.00379512454793613,-0.0536453179874325,-0.0758099380732565,0.0888613582605322
176,1696,0.0283434383470268,-0.0226183779730713,0.964978591716367,0.054305178150461,-0.0149249229139582,-0.00292399350488034,-0.0402031549767432,-0.0749405911247946,0.0803008193627689
177,1697,0.0289140319367605,-0.0227456272390502,0.964940063636535,0.0541714922081537,-0.0154365268554009,-0.00222873016443183,0.0503299352812774,-0.0826603564626824,0.0665330725796666
178,1698,0.0294911621166333,-0.0228661098271582,0.964901785216338,0.0541763135534473,-0.0153500928380854,-0.00165577911772247,0.00132462367101187,-0.0533785822963301,0.0722291038929644
179,1699,0.0300874752512351,-0.0229803637684755,0.964860760234802,0.0555748118719815,-0.0146765265049393,-0.00157030561193337,-0.0131115206938353,-0.0313281006763406,0.0589793141623191
180,1700,0.0307095525742927,-0.0230840270229635,0.964819494317558,0.056568822473225,-0.0139042511647275,-0.00242179006641422,-0.0438954527845026,-0.0419155504334023,-0.015755764271056
181,1701,0.0313410677715551,-0.0231915633146996,0.964761110586708,0.0573901914760681,-0.0133364964972395,-0.00347270576747616,-0.0719414561357448,-0.0181621858799652,-0.0484352152638493
182,1702,0.0319737182137561,-0.0233070870480883,0.964697248154302,0.0569942762638858,-0.0133855597275631,-0.00402188006896796,-0.0727766721160071,-0.0226500721699644,-0.0422394471676304
183,1703,0.0326015485767577,-0.0234422327756986,0.964629439022967,0.0568948653643471,-0.0143499647715267,-0.00475073418499897,-0.0618155920244816,0.0306340334395891,-0.0462156866583433
184,1704,0.0332403925844804,-0.023563384477249,0.964559930241425,0.0575220926731399,-0.0135181031475972,-0.00523715846491146,-0.0289694080405411,0.00144523443906819,-0.019533873315733
185,1705,0.033903458190965,-0.0236759060557981,0.96448365138871,0.0588005011325912,-0.0136563599294877,-0.00519449861972671,0.0526677255400684,0.0251978237241502,0.0182724466175231
186,1706,0.0345474314884143,-0.0238026957991164,0.964413419647263,0.0604092964118165,-0.0131901902858161,-0.00487854492393756,0.0648837888482312,0.0547745838388822,0.0548157501694953
187,1707,0.0351995589342175,-0.0239109047756411,0.964345505628776,0.0626638720431597,-0.0124240820998625,-0.00478627635557422,0.153756571902336,0.0321170642756706,0.0377618515667293
188,1708,0.0358778237960307,-0.0239975536027546,0.964273063469081,0.0661759322605186,-0.0109748694417877,-0.00525049827281792,0.122900931262433,0.065745456265431,0.0244614677560007
189,1709,0.0365722266297407,-0.024048494144998,0.964195269349856,0.0682963184164533,-0.00839765030658062,-0.00577971145498396,0.0482747993205658,0.0490220804760402,0.0033469494230448
190,1710,0.0372610161841654,-0.0240741145654437,0.964111950534472,0.0683388478724448,-0.00594948313333317,-0.00663159575010137,0.0569132113630259,0.0866784335439708,-0.0659180929207623
191,1711,0.0379437455386103,-0.0240821454433444,0.964021080525931,0.0674744002930494,-0.00419197989319108,-0.00745877306206396,-0.0187027563950886,0.0696962059321146,-0.0730233419557147
192,1712,0.0386235284610542,-0.0240766022509162,0.963921011088588,0.0664254732101588,-0.00237759009623271,-0.00900673197833582,-0.0340677517921045,0.0481847387390447,-0.139898163378663
193,1713,0.0392806845674643,-0.0240838305943683,0.963817106789395,0.0633838604031608,-0.00190065757106842,-0.00958846970626509,-0.0493960878624751,0.0964059378884991,-0.107184974366792
194,1714,0.0399081782300606,-0.0240979010057072,0.96371060509545,0.0604855015240312,-0.00148625199586413,-0.010544374097836,-0.103256634036564,0.10073805999182,-0.124673967197533
195,1715,0.040495306461491,-0.0241276379036245,0.963604404683113,0.0579085801510226,-0.00247109645141925,-0.0110664691281572,-0.047958900820793,0.0614866719134379,-0.104975990406704
196,1716,0.0410362612826394,-0.0241728385437196,0.963506501350663,0.0544141624780134,-0.00377829579128596,-0.0106266558946612,0.0190461338085984,0.0451497444676131,-0.0595312667675624
197,1717,0.0415660439124166,-0.0242345284643457,0.963411338895496,0.0536063017855908,-0.0049632281257925,-0.0110848712368921,0.0152778496495588,0.0907148319813535,-0.0701897657591436
198,1718,0.0420763558278083,-0.0242861879460614,0.963321481110403,0.0526569405771932,-0.00422399767863631,-0.0107980952686306,0.0460396723451534,0.0390403352689582,-0.0357279074790572
199,1719,0.0425753157794772,-0.0243553863796515,0.963232700018705,0.0519747366868014,-0.00528683765047958,-0.0111765625657903,-0.0272635063074455,0.122818448775508,-0.0581121039830149
200,1720,0.043033940896049,-0.0244243782204267,0.963149941479443,0.0494613565574364,-0.00545527373806814,-0.0108140398110184,0.0260626959781552,0.0236392245624751,-0.0464748016242166
201,1721,0.043486373074693,-0.0245263891099015,0.963066444730462,0.0477273253226418,-0.00624802900549829,-0.0114085811543473,-0.0668570319855681,0.105604649257121,-0.0804755998947382
202,1722,0.043901848404486,-0.0246497006727065,0.962989008710776,0.044616898353331,-0.00710409075004537,-0.0109082469508325,-0.0195812347490341,0.116103983715523,-0.0401829452044264
203,1723,0.0442964613415344,-0.0248004974215611,0.962918988283017,0.0421346958588784,-0.00796128597259045,-0.0102807526435284,0.0066572414196105,0.127502544013441,-0.0172466146556743
204,1724,0.0446767361740147,-0.0249667013071723,0.962859284701797,0.0407814410570422,-0.00883929911530017,-0.00893159084189514,0.0627500071111889,0.150807601288033,0.055455546352188
205,1725,0.0450712092619634,-0.0251231234816081,0.962806714945817,0.0423477152672167,-0.00820279492613522,-0.00803248020702911,0.140926367862272,0.183781066886272,0.0660626627829955
206,1726,0.0455257598615126,-0.0252363684621368,0.962753185982946,0.0446838085463029,-0.00647411290540402,-0.00674134523753794,0.124295164618268,0.181336755758725,0.116285293129825
207,1727,0.0460086699090555,-0.0253300557167772,0.962702370454789,0.0484614099595611,-0.00474497134131219,-0.00640405468298685,0.123805343589299,0.161175099066753,0.0746874540295516
208,1728,0.0465285316044635,-0.0253716323843753,0.962651820224238,0.0507864057516764,-0.00232490983062796,-0.00547121332988244,0.121456500399144,0.117722087955102,0.0844340449311912
209,1729,0.0470914671930402,-0.0253788524882913,0.962596623796077,0.0527233083121333,-0.00165868258276273,-0.00515081856498174,0.0723514911885388,0.0746679913947653,0.0514763572035495
210,1730,0.0476768283487596,-0.025354726865609,0.962538097127416,0.0531385175964572,-0.00131696153196426,-0.00467370420478446,0.0537827467354566,0.039930126899979,0.0369517421120876
211,1731,0.0482649250093898,-0.0253083268604046,0.962477883400236,0.0527637022037293,-0.00174484860762512,-0.00391407907477935,0.014642900787404,0.019610908816746,0.0583485702605523
212,1732,0.0488451678526904,-0.0252418172511668,0.962415220109251,0.0529502374998148,-0.00176000709413196,-0.00366876233086018,0.0433150859952843,-0.00200795454563397,0.0353667606826788
213,1733,0.0494321752726365,-0.0251595899628396,0.962346535390868,0.0542298386375078,-0.000517630329112301,-0.00383230382708472,0.062387040482917,0.0143697375031839,0.0221338193661965
214,1734,0.0500348042678811,-0.0250695808340246,0.962266237319428,0.057022869897938,0.000384275399931783,-0.00482648727936549,0.031041436511457,0.0333517183372754,0.00149676306622794
215,1735,0.0506465352285035,-0.0249593591919061,0.962176797801109,0.0587648206368564,0.00275104360725259,-0.00538008828704593,0.0311887533975954,0.033672928758572,0.0156392208945201
216,1736,0.0512621212715767,-0.0248485535223891,0.962081777395318,0.0601821481958798,0.00449743073814188,-0.00581886150197808,0.0539004908280687,0.0886851886807176,0.0241938593712426
217,1737,0.0518785283637792,-0.0247257051267422,0.961981703492682,0.0606825950997721,0.0064585425870854,-0.00635966969500085,0.0244852210171081,0.0730440176744082,0.000564795174094086
218,1738,0.0524804811713963,-0.024589245360182,0.961883013052052,0.0595856114429337,0.00833841348341106,-0.00575645464632075,0.031675269547548,0.071655448450565,0.0627194637918098
219,1739,0.0530804389976818,-0.0244362145603701,0.961785603812378,0.0590920230597054,0.0105348334429604,-0.00582085244353268,0.00966614374129862,0.037450439743712,0.0328072476263614
220,1740,0.0536782565099595,-0.024264222652484,0.961695879804721,0.0588851489995293,0.0120019223679436,-0.00579305143260363,0.0518525973466487,0.0101889176866058,0.0178523858030513
221,1741,0.0543215046766894,-0.0241309644888482,0.961608532556669,0.0596228916708592,0.0134591355829382,-0.00632675565704645,0.00453829731097966,0.000864420491858199,-0.0219595068643873
222,1742,0.0549876271749422,-0.0239876112975815,0.961519730826332,0.0606468016831352,0.0145970187184137,-0.00724262149312318,-0.0405470219846659,0.0728381574299543,-0.0506155102516071
223,1743,0.055663102255204,-0.0238416024846791,0.961431306740019,0.0609275959471551,0.0151673254055048,-0.00807388708478177,-0.0471375756544404,0.0145514594056791,-0.0713910483085556
224,1744,0.0563167012643274,-0.0236931870747985,0.9613473008368,0.0603622601062912,0.014913787685988,-0.0083794632307045,0.00473179274090623,0.0724974828665978,-0.0532648305883621
225,1745,0.0569543488915693,-0.0235292252241916,0.961271369727859,0.0610512631362612,0.0149961648617781,-0.00806346438772401,0.0881617116370251,0.00966875348986103,0.00699700997716842
226,1746,0.0576189915727312,-0.0233468133036921,0.961197522505452,0.0629600085819889,0.0143464368338854,-0.00779914063748302,0.1363806870295,0.029154952751173,0.0318845808973773
227,1747,0.0582806340552961,-0.0231644346641997,0.961136030407367,0.0649555853547257,0.0147773301935991,-0.00721163130611226,0.124915121709383,0.00832361059292399,0.0576183347290576
228,1748,0.0589661678312827,-0.0229873941778642,0.961153964850941,0.0666628472090491,0.0151376540373604,-0.0057392622681646,0.131544357601813,0.0167794030621662,0.0910908445274996
229,1749,0.0596444766892877,-0.0227592815715626,0.96120636251814,0.0667092928746953,0.0156809155404465,-0.00366640885944529,0.0803051147552155,-0.0434760172374728,0.115300797906013
230,1750,0.0603297937232663,-0.0225278462920816,0.961251836018466,0.0660484168644097,0.0169875008223763,-0.00256312079888522,-0.0297841975153705,-0.0214111582479693,0.0567143300411986
231,1751,0.0609967615236219,-0.0222769669404783,0.961294447732286,0.0640194038346233,0.0181474134610326,-0.00125305676864715,-0.0372577413403943,-0.0381955282311407,0.042276931654442
232,1752,0.0616411205923237,-0.0220414413062639,0.961335839795891,0.0614592836408292,0.0179558350687517,-0.000292088592390868,-0.0448376480495891,-0.0290171728733699,0.0125881435172808
233,1753,0.0622791018356987,-0.0218063934790152,0.961368388294778,0.060448838402629,0.0192488573972058,-0.00065222925126238,-0.0927453029424311,0.00108594037900423,-0.0505691206961941
234,1754,0.0629124419550118,-0.0215775944817636,0.961389890462825,0.059872770145382,0.0198924006915645,-0.00143651748411203,-0.0551232481337635,0.0212759466174251,-0.0907549240512728
235,1755,0.063546005234352,-0.0213413330916135,0.961397483619275,0.0598126945627313,0.0212984598607179,-0.00288061096478497,-0.0699799025627639,0.0414360356670025,-0.135828632369705
236,1756,0.0641642574338102,-0.0211011446632871,0.96139522785425,0.0587583796048667,0.0219035865375995,-0.0038466656834237,-0.060344006887978,0.0420220664768275,-0.130185014292068
237,1757,0.064774718268496,-0.0208593372566616,0.96138482043551,0.0579199296994597,0.0221911681172684,-0.00470794161702644,-0.0881738121878661,0.0174284266817837,-0.112744794730916
238,1758,0.065366582050734,-0.0206103865478642,0.961371438618386,0.0563470471537043,0.0226263689450818,-0.00493386004406931,-0.0645448439843535,0.0162271706020665,-0.0835623888561132
239,1759,0.0659518223081039,-0.0203738365010852,0.961356811541906,0.0560533181759795,0.0219262051067501,-0.0051030288314337,-0.0139725843873765,-0.020031963427248,-0.0607053646603422
240,1760,0.0665387127569149,-0.0201432653001908,0.961341164521219,0.0560173757805391,0.021618737923367,-0.00504400851757145,-0.01880083277622,0.00586595575232916,-0.0293465453438486
241,1761,0.0671354848714746,-0.0199280914627851,0.96132564421985,0.0561695036132983,0.0207376969451558,-0.0047103499523555,0.00715315329855769,-0.0437559300632439,-0.0121183215441649
242,1762,0.0677424917773674,-0.0197233941723414,0.961311491935358,0.0563029157854585,0.0202193653556382,-0.00422052450796194,-0.0294717610661336,-0.0229327042280671,0.0102127372895075
243,1763,0.0683471925114163,-0.0195291990270509,0.96130218055368,0.055805237550065,0.0194197825923354,-0.0034096319928001,-0.0347385881501823,-0.0156843006215476,0.0253670255858789
244,1764,0.068940729788131,-0.0193539984216012,0.961298569467493,0.0543655315302194,0.0175726493618918,-0.0027114364432822,-0.0774177667843775,-0.0404247607276568,0.0151023223930401
245,1765,0.0695246100016189,-0.0192002925823492,0.961297427521263,0.0536088900483169,0.0161896514131288,-0.00242213007516855,-0.0732564300837671,-0.0310541906483471,-0.0106283034398264
246,1766,0.0701212956428546,-0.0190550644618429,0.961298576955637,0.0527792214954515,0.0148411142782853,-0.0024520734379577,-0.0979292792024917,-0.0146925621670975,-0.0363890718975198
247,1767,0.0706794625988872,-0.0189332678159982,0.961301920782763,0.0501802278331469,0.0142003893046498,-0.00165501935260774,-0.130295177099447,-0.0161964723926218,-0.00650678438182861
248,1768,0.0712144390441188,-0.0188146713530608,0.961317288214758,0.0476452682435755,0.0138357990601931,-0.00129339996294841,-0.128391832234766,-0.0216032562446253,-0.0419703527454764
249,1769,0.07172992068609,-0.0186984288083945,0.961335979875518,0.0451965186380009,0.0137538853777498,-0.000795501152702728,-0.14775234815292,-0.0277727180688516,-0.0262381542391121
250,1770,0.0722213993105171,-0.0185714963102266,0.961357803228171,0.0436634279649572,0.0144782938570173,-0.000534532919876688,-0.141819866051748,-0.000241712514886153,-0.0243907382992756
251,1771,0.0726943586507018,-0.018435715765681,0.961379952999023,0.042409722375133,0.0151301437408954,-0.000584335950491879,-0.211497050560478,0.00732261985133687,-0.0186830430878517
252,1772,0.0731504549619647,-0.018293056223221,0.961398324155556,0.0415100055362861,0.0157962865805734,-0.00134943163170731,-0.206647564330311,0.0295335327885064,-0.0729418526861692
253,1773,0.0735861914758194,-0.0181517875446783,0.961410162098591,0.0400991099207714,0.015651314954534,-0.00212145389153724,-0.228096866428972,0.0333188266603122,-0.0892054977234503
254,1774,0.0739987828619048,-0.0179909908751952,0.961412918862917,0.0388104375700522,0.0162520621886345,-0.00309970407044578,-0.226061751047532,0.0374936953748639,-0.104245054583818
255,1775,0.0743938839913948,-0.0178220982641776,0.961407378183942,0.0374676566689062,0.0159320465216643,-0.00377000726877751,-0.158136460865242,-0.015637662377858,-0.0900029620086533
256,1776,0.0747804678457143,-0.0176584413155041,0.961393895285416,0.0364782350307518,0.0148192958499004,-0.00447301594936262,-0.108108137783885,0.0256654433528546,-0.0872362695191756
257,1777,0.0751888350375668,-0.0174860191921812,0.961371714866566,0.0368989226558369,0.0151165563756646,-0.00516923003019758,-0.118883737771072,-0.0359782024568796,-0.0599165669287584
258,1778,0.0756101862967319,-0.0173201582776805,0.961347957002704,0.0367491705078294,0.0140389446774685,-0.00493835890604983,-0.084485951359852,-0.0482755334592077,0.00101148389689337
259,1779,0.0760519972734814,-0.0171687143098303,0.961327166606265,0.0369083117119087,0.0124726648787323,-0.00413579425384512,-0.0672965938488855,-0.0244482812036065,0.0580607841679849
260,1780,0.0765122334536539,-0.0170307896074358,0.961311369714877,0.0377157246184966,0.0107774976853573,-0.00304260886474938,-0.0916949519621875,-0.0409014850559239,0.10889176883025
261,1781,0.076974694192106,-0.016910182187218,0.96130533251182,0.037857306468484,0.00895373561404903,-0.00160077498658826,-0.0718645143566213,-0.0823684151302357,0.125215727739926
262,1782,0.0774466906162445,-0.0168177055392833,0.961306154828628,0.0388613722526308,0.00792162863235227,-0.000405385712265816,-0.137038311091839,-0.00019327886457482,0.152866675251837
263,1783,0.0779085276757606,-0.0167629500638557,0.961318733360397,0.0382223084717088,0.00578662229477711,0.00103675824260133,-0.172637302987709,-0.0832341337342528,0.148540287562139
264,1784,0.0783547602173589,-0.016739111936736,0.961342316630451,0.0370022713673063,0.00484157155457029,0.00235506089822952,-0.221568107712834,-0.061433548065905,0.138069153749539
265,1785,0.0787698173788492,-0.0167615987641142,0.961376362806883,0.0345485797685469,0.00193629796385277,0.003682452085031,-0.249189979453593,-0.100051195017436,0.125566902642833
266,1786,0.0791821005123088,-0.0168233868945335,0.961410359272936,0.0323735873202005,-0.0017207695235651,0.00445059790470452,-0.267186665506091,-0.144686483213334,0.0933513283952372
267,1787,0.0795582828614764,-0.0169438656140205,0.961450089012594,0.030070464768949,-0.00468753714773227,0.00529593363528679,-0.338119352373303,-0.151883617873261,0.116754659300276
268,1788,0.0799206421347459,-0.0170863792573784,0.961492676521592,0.0284716413617409,-0.00669555835304928,0.00642327607819732,-0.323721542861505,-0.10211610087431,0.155177312275818
269,1789,0.0803000510027501,-0.0172229358085273,0.96152643346143,0.029913573518766,-0.00758301038843428,0.00591124733150257,-0.304838038353025,-0.0371994199541136,0.104034031832965
270,1790,0.0807382399706714,-0.017290305317922,0.961538577585003,0.0342578151178801,-0.00533300608218462,0.00475801425706044,-0.35461839670142,-0.00361161705976494,0.123098543369049
271,1791,0.0812614089976382,-0.017250181573789,0.961518595926346,0.0408153353307823,-0.000746290958051905,0.0026279760772737,-0.32664728124721,0.126167020996403,0.0863110678111388
272,1792,0.0818948594703165,-0.017102841905615,0.961459327517446,0.0474753394560955,0.00301468105716065,-0.000526555574734596,-0.290014962573704,0.0413528306403336,-0.0100628796116137
273,1793,0.0826225188970535,-0.0168639883793836,0.961365351512312,0.0515414617067082,0.00787453188881457,-0.00352513922216667,-0.303013717064147,-0.0661035589131448,-0.0950486423381306
274,1794,0.0834080635883724,-0.016576811857897,0.961241975605422,0.0537131637183803,0.011792835369377,-0.00663801186514727,-0.408313255668571,-0.0299261725937052,-0.137354786091183
275,1795,0.0841910806030645,-0.0162819413626702,0.961103005238083,0.0535017217678476,0.0138254446894357,-0.00918377691190073,-0.417239429341528,-0.0145792500846833,-0.156658772766472
276,1796,0.0849283872022163,-0.0159930145782291,0.960959851243404,0.0510948541808385,0.0164858789750955,-0.01106731481886,-0.416083770066025,0.0234442935909737,-0.168477315037926
277,1797,0.0855998845978059,-0.0157199285606282,0.960818685550121,0.0475774591881698,0.0183439132322208,-0.0127301554630236,-0.473332223159618,0.0327273336669859,-0.168820365439621
278,1798,0.0861649052477049,-0.015458700222417,0.960694470642013,0.0412866480532171,0.0195566176293703,-0.0124526867980634,-0.478381259249057,0.00771347936521259,-0.0827876880204795
279,1799,0.0866149599501129,-0.015218581756183,0.960596697052982,0.033773747197273,0.0201906658368024,-0.0113886530892714,-0.442136820874116,0.0326052345007458,-0.0454047550725605
280,1800,0.0869457822245024,-0.0150328345509893,0.960531589051765,0.0258899383045865,0.0190576517570187,-0.00874994520577044,-0.40196424738286,0.00353355105572211,0.0746353824706286
281,1801,0.0871638481854997,-0.0148576851600483,0.960536451984952,0.0184985430523513,0.0190958890957664,-0.00621905940348906,-0.452833124350188,0.0720289333736248,0.099051032105783
282,1802,0.0873110629977367,-0.0147773276683921,0.960591530510949,0.0122072512507148,0.0175247801667199,-0.00404065384446593,-0.520775545324281,0.10215953482753,0.106467444593271
283,1803,0.0873677456975469,-0.0146786437835863,0.960588987029632,0.00647163590304335,0.0171926539433229,-0.00443200245513309,-0.59613332194994,0.106616354603604,-0.0436866219583837
284,1804,0.087379573864881,-0.0146871837554102,0.96058373241734,0.00140887896936136,0.0148607932257893,-0.00590281508248713,-0.562855962498854,0.127296184387544,-0.145391362520146
285,1805,0.0873169379993886,-0.014717458251303,0.960570986558626,-0.00458212572725429,0.0129988006494991,-0.0076079141633884,-0.553772168615909,0.154589209929068,-0.200284048249426
286,1806,0.0871913461146826,-0.0148272832602252,0.96055404362339,-0.013383754730697,0.00997378587928276,-0.00769613621192176,-0.535227107834224,0.154950182355854,-0.161892022794655
287,1807,0.086920152552777,-0.0149873505509976,0.960560557773087,-0.0257049271450023,0.00653640721990446,-0.00599217390011675,-0.426701639181067,0.145970766825398,-0.138168598543829
288,1808,0.08654984933751,-0.0151972120468616,0.960583469248587,-0.0368307857525828,0.0030275107085985,-0.00415385555794864,-0.372653708145141,0.0649793618066617,-0.112372707361609
289,1809,0.0861124224784411,-0.0154509914654494,0.960609409765751,-0.044855334724113,-0.001210272294921,-0.00339702054366142,-0.549407803916543,-0.0101666550560116,-0.0656798246369689
290,1810,0.0856111113781416,-0.0157448531326926,0.960633659305025,-0.0511051722060035,-0.00668008399951528,-0.00291086062429402,-0.569250750240645,-0.0435028053106067,-0.0358222610231739
291,1811,0.0850703070339222,-0.0160478354321395,0.960647394897568,-0.0554782798365824,-0.0123587203610755,-0.00296982924566815,-0.59883583402825,-0.177242455464555,-0.0267194686669257
292,1812,0.0844979731747543,-0.0163718186373818,0.960642206289919,-0.0591731735507987,-0.0192044260040418,-0.00402106864244374,-0.560144205092496,-0.255531601108386,-0.0969805541275654
293,1813,0.0838868176993705,-0.0167115625719123,0.960612838994567,-0.0632130644297269,-0.0255038150099329,-0.00506871488039307,-0.549209967263499,-0.314598723211229,-0.111976311049731
294,1814,0.083236923099608,-0.0170703433769771,0.960560429473114,-0.067191542466457,-0.0317199553071873,-0.00694851607625959,-0.55276945911292,-0.318359510591671,-0.178271884692165
295,1815,0.0825475886431366,-0.0174541523298058,0.960496521647961,-0.0728287587628041,-0.0355924890956513,-0.00908828542586288,-0.558109281951205,-0.289494911013853,-0.231782718805027
296,1816,0.0817790154309996,-0.0178385238686943,0.960413825685345,-0.0800893742144689,-0.0378406947637002,-0.0109333935795095,-0.548732933289338,-0.118751613733912,-0.247739497413869
297,1817,0.0809217939178116,-0.0182235432136085,0.96032023769808,-0.0885696561670922,-0.038812777333061,-0.0126980562439,-0.613791607519011,-0.0602559796696807,-0.242137919403357
298,1818,0.079967102701351,-0.0185877585117693,0.960219532086676,-0.097214040296053,-0.0371954856346057,-0.0138531422983785,-0.583812813081229,0.106319910399103,-0.185763711964516
299,1819,0.0789477892795426,-0.0188917274448149,0.960113960656372,-0.104113948879537,-0.0330208879098996,-0.0150592423183493,-0.575871401829934,0.160449384951098,-0.149432181754319
300,1820,0.077890377762599,-0.0191258383444616,0.960003372700966,-0.109383514907176,-0.02674349819758,-0.0159961733045797,-0.53644966910852,0.26797075154144,-0.110311406130905
301,1821,0.0768079892036697,-0.0192467931716227,0.959904032177584,-0.113908097091323,-0.0199141890106359,-0.0160399552905827,-0.511758713597445,0.275485055934841,-0.0288370690605552
302,1822,0.0756811792027403,-0.0192965007784249,0.959843386046938,-0.119737804675251,-0.0133134942677476,-0.0139691110683587,-0.522956058062731,0.322726699979873,0.11514706500893
303,1823,0.0744975438022654,-0.0192356790199282,0.9598309277981,-0.124317378859564,-0.00751815924488306,-0.00927481471520558,-0.368085859672525,0.395994543635064,0.332894270657551
304,1824,0.0732614509617774,-0.0191016898640424,0.959886951103578,-0.128758956394815,-0.00361204752858452,-0.00216468299605554,-0.0884803251312921,0.281358456888587,0.464308005683176
305,1825,0.0719949822913142,-0.0189368997233985,0.960022830062665,-0.131986817779489,-0.00159519646870688,0.00644057104876238,0.130328781350009,0.196939035942664,0.555527387733688
306,1826,0.0707527671603954,-0.0187971260658347,0.960216260876835,-0.132662360580102,-0.000323887523574294,0.0149295760770619,0.240449583241652,0.272764570714457,0.603126626173032
307,1827,0.0695015256073608,-0.0186637060467619,0.960465074016664,-0.129415071758079,0.00269961605147573,0.021853396613586,0.285740344450653,0.258166693168555,0.570881281068893
308,1828,0.0684255040717328,-0.0186797637956934,0.960737632899058,-0.121811407573075,0.00466341886956516,0.0265870569484819,0.300985310528788,0.240532735450801,0.480964664623985
309,1829,0.0672573187353208,-0.018671407109714,0.961020169499297,-0.117767504405775,0.0053486264169076,0.0297193602111308,0.353096760786248,0.120640210173401,0.303339583078741
310,1830,0.0660895379609572,-0.0187758381661354,0.9612953011214,-0.115099089117391,0.00225436807602717,0.0303089672959019,0.403459446035216,0.0543054685678026,0.0657201454173779
311,1831,0.0648391990940058,-0.0189623199578427,0.961550281505879,-0.115400417176174,-0.00254125977635143,0.0289043856982956,0.449754799074525,-0.0424931668175631,-0.152767026429626
312,1832,0.0635535369190879,-0.0192807625812532,0.961774372654584,-0.117483159519533,-0.00806672181946223,0.0258215762921624,0.300734907782856,0.00617201095140334,-0.267148067874811
313,1833,0.0622349717653851,-0.0197066213637481,0.961967393330988,-0.120173011210211,-0.0125277236019153,0.0216533880810727,0.264550819491729,0.154595652099056,-0.36551513358004
314,1834,0.0609179940686825,-0.0201930950939268,0.962126962571109,-0.121205286301424,-0.0161414079400301,0.016712524158523,0.28343969478158,0.246830329581141,-0.423919139500444
315,1835,0.0595948768164311,-0.0206895300160359,0.962268326505022,-0.123507782695518,-0.0202903872009795,0.0138596341440169,0.353223810888344,0.231010613959514,-0.339241361195373
316,1836,0.0582853184546871,-0.0211676826319543,0.962403455921075,-0.125019670394271,-0.0242373463547552,0.0119908858628475,0.420502089826763,0.271482200766705,-0.274124300919071
317,1837,0.0570429380484429,-0.0215667668628864,0.962529442631685,-0.122315843073438,-0.0243296804028756,0.00992907407488841,0.441810009069892,0.274804904661529,-0.22828715599568
318,1838,0.0558945957560053,-0.0218523348020474,0.962648634280633,-0.116986688266725,-0.0217231173745903,0.00862104519326055,0.433530578759408,0.237396537105626,-0.140790052821612
319,1839,0.0548592520644007,-0.0220226162522634,0.96276164929647,-0.110365933178568,-0.0188684589385868,0.00750673283643076,0.284756959396108,0.0907766797018357,-0.0748773196442139
320,1840,0.0538941877913606,-0.0221077690116268,0.962876723164065,-0.10523102050703,-0.0170272594496532,0.00721404997030858,0.215086579967156,0.0417240338829298,-0.038711090820828
321,1841,0.0529703890544148,-0.0221329227710254,0.962997177100505,-0.102030816581321,-0.0155406539220532,0.00737209855029257,0.106278500280486,-0.116222264822061,-0.0265053992706385
322,1842,0.0520609371390355,-0.0221413707232415,0.96312251584851,-0.0999792304799611,-0.0157536417266016,0.00741250707306759,0.0380429037102708,-0.214886236240542,-0.0503209289930638
323,1843,0.0511638346062303,-0.0221696500251101,0.963250341607812,-0.0986446080417519,-0.016786958057281,0.00731357477246925,-0.023890045755721,-0.248799108495882,-0.0612494968602973
324,1844,0.0502615956946167,-0.0222327094793157,0.963380747266569,-0.0984041661821299,-0.0182602852849951,0.00760792636359829,-0.103251310474161,-0.215399879168893,-0.0365226287828914
325,1845,0.0493364378455788,-0.0223267892473074,0.963512273100976,-0.0978250615941808,-0.0186021046715922,0.00756704588421538,-0.0915746163531877,-0.0886775832065112,-0.0513742825828389
326,1846,0.0484092627351726,-0.0224496562105648,0.963632460985237,-0.0972111567564493,-0.0187735020128129,0.00755406130036354,-0.067152867478074,-0.0625295727504134,-0.0372252229944865
327,1847,0.0474285233381167,-0.022581055444432,0.963750421910832,-0.0957228781868381,-0.0181312127773231,0.007035797461742,-0.0436660247077355,0.0221904861104615,-0.0288663240377962
328,1848,0.0464219548507976,-0.0226960787695603,0.963857569320273,-0.0937839736854229,-0.0165124891754558,0.00636129569527113,-0.0203884981095495,0.0207642405297319,-0.0153012333390692
329,1849,0.0454021754184842,-0.0227951861913587,0.963952332694515,-0.0919807126409745,-0.0154212300329308,0.00584318732785821,0.0348901216277245,0.0163450807775837,0.00572977422070767
330,1850,0.044409255270632,-0.0228882496008711,0.964031496622341,-0.0893351307694932,-0.0153004443657838,0.00475919896119344,0.0986064271092254,-0.0915409701107826,-0.0195358955338094
331,1851,0.0434854921133708,-0.0229989601017477,0.964093663169151,-0.0863030401343091,-0.0158379751436568,0.00373824538889465,0.133302372794053,-0.140099593884752,-0.0245414044213654
332,1852,0.0426629465374186,-0.0231442841779071,0.964140425210011,-0.0827251799875347,-0.0178797947781922,0.00320907335465608,0.164684732902521,-0.174819332891184,-0.00169415444580515
333,1853,0.0419461063541038,-0.0233328773118404,0.964179427645687,-0.0796872850946215,-0.0200979703804446,0.00337746873914751,0.163759274191572,-0.117787115332236,0.0213245074236441
334,1854,0.041342461450573,-0.0235518531934121,0.964212436301218,-0.0749658684059869,-0.0226693105561487,0.00358908424434291,0.188094302875155,-0.131238914603911,0.033165949816131
335,1855,0.0408233856517891,-0.0237933818864706,0.964244549943539,-0.070631640881475,-0.0251594560730949,0.00403579106104241,0.166863412864621,-0.0583338970838544,0.0270007770741729
336,1856,0.0403885269984903,-0.0240274658887211,0.964269284556527,-0.0643302248477419,-0.0255995337121662,0.00385751105513395,0.15646149865555,-0.0144666649526894,0.0140552875933401
337,1857,0.0400153016659961,-0.0242435240296878,0.96428920356981,-0.0580017856172426,-0.0252086173907009,0.00422427156059899,0.147483228536547,0.0242413926614885,0.0561664375621395
338,1858,0.0396784519864251,-0.0244377846635386,0.964305583115908,-0.0518909894924653,-0.0242954854575982,0.00429750061713585,0.153800711051372,0.0771415624425168,0.0398087037851789
339,1859,0.0393629439283328,-0.024588891193078,0.964317410743145,-0.045732779211637,-0.0218447746087615,0.00427600941455386,0.179753741251398,0.0821241898846609,0.0389920205835283
340,1860,0.0390515488929667,-0.0246947232212582,0.96432426777923,-0.0405163219176984,-0.0188448661046038,0.00403709671708521,0.185619022477094,0.0644431142673994,0.0264744599226986
341,1861,0.0387325218228283,-0.0247591200802227,0.964326770890543,-0.0362516350414921,-0.0154283622205034,0.00374853960971332,0.235031961030802,0.0820188155180463,0.0102130753084673
342,1862,0.0383904865740543,-0.0248016584229111,0.964325527880383,-0.0343095251584796,-0.0134286526284975,0.00308196530668984,0.245679764207395,0.0521832698623588,-0.0541105202344568
343,1863,0.0380419837842054,-0.0248426044549274,0.964317391426318,-0.0323201721007736,-0.0120409298008465,0.00236923532647903,0.28507606889755,0.035918789373581,-0.0538486659222366
344,1864,0.0376848717462608,-0.0248840020120184,0.964237548522949,-0.0311565397993038,-0.0112180006562361,0.0014430739494166,0.348197590144303,-0.0354776886514187,-0.0914457015560272
345,1865,0.037335398676138,-0.0249462844626534,0.964125101832164,-0.0290702325628617,-0.0112086566531941,-0.000403079120881106,0.407840171319646,0.0036965463793465,-0.143433601913931
346,1866,0.0370476468913775,-0.0250405927087072,0.964007465657114,-0.0264790699650978,-0.0123175713252819,-0.00198174972392422,0.386724431313983,-0.014047845872745,-0.12606472655873
347,1867,0.0367663907073712,-0.0251497333195185,0.963900006695611,-0.0233679096503879,-0.0128645921424073,-0.00362290009216876,0.404402936486914,0.0235568173661038,-0.132764690001077
348,1868,0.0365250403988728,-0.0252611291406321,0.963796603028646,-0.0193971331782156,-0.0132924609741116,-0.0049903705170142,0.424793146893398,-0.000283643009085346,-0.114878267617159
349,1869,0.0363301050613181,-0.0253756169475167,0.963698721735028,-0.0153496965080185,-0.013828540359671,-0.00580783461437458,0.438587449295236,-0.00395382670749765,-0.082673829661926
350,1870,0.0361811300570291,-0.0255032740180148,0.96357747955026,-0.0113696349186047,-0.0148836137632941,-0.00659006102173837,0.429186133200464,-0.0256877921367972,-0.0564161556325148
351,1871,0.0360765649961777,-0.0256509352911577,0.963473127893773,-0.00727554037790532,-0.0167911891930372,-0.00649982842184949,0.477228916645245,0.00296941417479111,-0.00141738346895954
352,1872,0.0360182580551702,-0.0257893022765118,0.963383950924998,-0.00290278098888633,-0.0165748237580323,-0.00614061965685526,0.453279696133215,0.0124670256641387,0.0143589301361189
353,1873,0.0359778823358917,-0.0259183395854684,0.963314732262229,0.000253244227765513,-0.016747164752586,-0.00469680557998629,0.487002614241086,0.0179431122408274,0.0688585883813215
354,1874,0.0359586247159547,-0.0260256406238291,0.963262985472433,0.00348105440973671,-0.0159156999535037,-0.00334696174083428,0.470330848762637,0.0317783171029837,0.0792802636865399
355,1875,0.0359573855907326,-0.0261042220113298,0.963221645376419,0.00709035569332062,-0.0148610208589703,-0.0025288531684494,0.46338346179409,-0.0011460211994834,0.0531493362318531
356,1876,0.0359762154201957,-0.0261686029674526,0.963188872895453,0.00998781209530438,-0.0138565184743429,-0.00158074717799859,0.525535737117547,0.0289713481369311,0.0442014953014433
357,1877,0.0360345567988362,-0.0262156268319118,0.963159401486241,0.01338640068478,-0.0125185667245463,-0.000985119178240088,0.490672428098866,0.0502529620982456,0.0400283936696176
358,1878,0.0361222778281567,-0.0262389880854857,0.963135302541629,0.01518075265636,-0.0107769359701413,9.50135287463916e-05,0.460484981175251,0.0484824088699617,0.0522679043665107
359,1879,0.0362618275612009,-0.0262489057320757,0.963106707091292,0.0190905356406452,-0.00940988342124477,-0.000572794750717825,0.418693706649766,0.0335459504609444,-0.0311243831210197
360,1880,0.0364470019278673,-0.0262517963940804,0.963074209895661,0.0220884819904148,-0.00772870880334005,-0.000666270323556551,0.411067336035396,0.089045578367231,-0.00962897014776299
361,1881,0.0366919804007243,-0.0262573559078916,0.963033501649661,0.0259746015121369,-0.00740692065694734,-0.00178095505793731,0.332830098087365,0.0116208189805895,-0.0570104594562178
362,1882,0.0369776565328539,-0.026256878554982,0.962989089920785,0.0287131916010033,-0.00607880589960311,-0.00223853946480111,0.353973965319959,0.0175764084881343,-0.0572989221708617
363,1883,0.0373056907537797,-0.0262569545177507,0.962942086234158,0.0316501182109667,-0.00580831690011241,-0.00230730282877594,0.301862572463621,0.0313429110211113,-0.00507196700232008
364,1884,0.0376615265865265,-0.0262524210066074,0.962897225595676,0.0344887713417785,-0.0055773840602146,-0.0021937082535163,0.311182043198699,0.00588662820607679,0.00619129352435422
365,1885,0.0380433486576975,-0.0262402586058653,0.962854597550134,0.0382151956712903,-0.00500211632723843,-0.00184102714126975,0.373572927287297,-0.0210087629182473,0.0319281924854982
366,1886,0.0385097630452534,-0.0262472469315018,0.962799022730284,0.043587608020261,-0.00521138503256717,-0.00231169423923699,0.309554236858779,-0.0219109499191567,0.0281433902183146
367,1887,0.0389848128656821,-0.0262429343923602,0.962749663882553,0.0480893499493223,-0.00473315111051015,-0.00191205698761646,0.319154815504977,-0.00797999833121351,0.0805332577732101
368,1888,0.0394987418661686,-0.0262183781018298,0.962696201073477,0.0529386945622906,-0.00325439681785556,-0.00243094381847216,0.293523001334803,-0.0648543989710957,0.0308283273151191
369,1889,0.0400436371335751,-0.0261910940594007,0.962636513652369,0.0567427653557658,-0.00298840072815016,-0.00265330277120911,0.247943077843626,-0.00999575482964789,0.0532715326985531
370,1890,0.040612051968175,-0.0261542461850713,0.962570797598599,0.0595187819808214,-0.0026263819242558,-0.00309608701708134,0.199001549404161,-0.0803355357657143,0.0283528773565822
371,1891,0.0411992446021759,-0.0261197257848846,0.962497968966805,0.0616164920164937,-0.00249075832211383,-0.00356171045387298,0.178922888478775,-0.0791180509716375,0.0218661085581813
372,1892,0.0418041758753058,-0.0260940837050438,0.962419610176791,0.0628281079696822,-0.00242903884543068,-0.00383309237747023,0.163987026016179,-0.051877999860247,0.0250968066869962
373,1893,0.042418247686404,-0.0260741831202354,0.962337030160051,0.0635521718530481,-0.00239962404033272,-0.00424736865539198,0.135344955031062,-0.0590694158695329,0.00947077288508623
374,1894,0.0430489017935938,-0.0260601992156999,0.96225176542065,0.0646558351146387,-0.00232700748557425,-0.00427632436706219,0.171223864449824,-0.0368366899700297,0.036877548076687
375,1895,0.043706906849965,-0.0260564491275528,0.96216372743236,0.0661279805884492,-0.00306413145751092,-0.00445765856981049,0.14225149357794,-0.0396316943151371,0.0426754135087486
376,1896,0.0444118250922224,-0.0260584096236063,0.962070940059823,0.0692445520929138,-0.00305122770524066,-0.00468397124854181,0.166380588067753,-0.0244955102294459,0.0645311326866911
377,1897,0.0451641515609273,-0.0260534926500979,0.961974241621174,0.0722664751811675,-0.00293408595035291,-0.00471995721839775,0.113283566589579,-0.00398823037203706,0.0893819114156803
378,1898,0.045962971309819,-0.0260301403621477,0.961870631794841,0.076107507607687,-0.00252654914571657,-0.00527343092802969,0.0860367028042354,-0.0480617427952362,0.0696410547165566
379,1899,0.0468035416088896,-0.0259870038749909,0.961759945455077,0.079718569712893,-0.00203257414936755,-0.00561793802255385,0.0975042151346002,-0.0566453500822506,0.0736470995854352
380,1900,0.0476888836923484,-0.0259364729178741,0.961641907850747,0.0828991991189134,-0.00216348144345487,-0.00617189147092938,0.0739105973473553,-0.0568051718223196,0.0531779458894661
381,1901,0.0486109280079622,-0.0258735745295292,0.96151684879507,0.0859252314123228,-0.00178234602080811,-0.00654604561585935,0.0638323059763081,-0.062592419852954,0.0592566183001257
382,1902,0.0495674363421235,-0.0257965195021653,0.961384756915131,0.0887044166434231,-0.000942436410727997,-0.00716372232476362,0.047267271657488,-0.057871693914921,0.0454189727481114
383,1903,0.0505529998082081,-0.0257220137012538,0.961323090139078,0.0913097853928591,-0.00013827906436581,-0.0072933791288023,0.00733660954429682,-0.0787296212865665,0.0554258181313778
384,1904,0.0515445638523319,-0.0256318190529739,0.961297880903796,0.0928863787737861,0.00118589312069873,-0.00695409494163646,0.040090433349212,-0.0517947527407041,0.0532111279569644
385,1905,0.0525358878241556,-0.0255489517932632,0.961270787712343,0.0946907416633243,0.0016567896421575,-0.00660095850873997,0.0450332083170817,-0.0346909962585226,0.0630439788019123
386,1906,0.0535569877222435,-0.0254610438581968,0.961231684863348,0.0967663799473023,0.0027748062294106,-0.00617037176048812,0.0400212083386419,-0.0678059604087301,0.0831412006623268
387,1907,0.0545549708846763,-0.0253641195562279,0.961196014713694,0.0978295085361532,0.00394683645277791,-0.00571944165362307,0.0167237722985282,-0.0228334086242978,0.0860440928210076
388,1908,0.0555467865774352,-0.0252452299934317,0.961157843148653,0.0991420386552365,0.00518251060585873,-0.00531637756211169,0.0699673122618098,-0.0353472923108211,0.0837747924715865
389,1909,0.0565528676465995,-0.0251191766975156,0.96111039428279,0.100805613157214,0.00600010814939617,-0.0057933206183113,0.0108145715433343,-0.0136056838951886,0.0559484872775954
390,1910,0.0575750200203954,-0.0249933848418514,0.961053236135228,0.102263135151428,0.00670165570732061,-0.00622756860561158,0.0148216116830637,-0.0586781107690827,0.0488166470072011
391,1911,0.0586155772697081,-0.0248715235440588,0.960981968308709,0.103890137453797,0.00671552219850161,-0.00766369525477946,-0.0392160483683152,-0.0386554444610244,-0.0098692170947878
392,1912,0.0596611409850789,-0.0247560525522491,0.960901662333276,0.104002989489195,0.00634048601307638,-0.00813839055505366,0.0184509786107167,0.000555504596079328,0.0147105339379929
393,1913,0.0607167360569727,-0.0246371497062679,0.960816163900607,0.103841797822361,0.00614048647645335,-0.00852733780781874,0.0138098431434126,-0.00959605387762585,0.00890655552932371
394,1914,0.0617866407682923,-0.0245143517326236,0.960724639845298,0.104507830278282,0.00601627472657715,-0.00900941887671519,-0.00888270374423586,-0.0206933997072473,0.0286673951396857
395,1915,0.0628633991060801,-0.0243690718415042,0.96063186404779,0.105090074938976,0.00735718093807733,-0.00937135103946635,0.00648697272413003,-0.0574506330061097,0.0141232316053426
396,1916,0.0639606298368945,-0.0242457779108707,0.960537305362671,0.105426521128931,0.00792775635368873,-0.00966079491829261,-0.0143059503511912,-0.0250509059515657,0.00701718637880681
397,1917,0.0650578065813685,-0.0241121288907617,0.960444208160317,0.105307564282578,0.00841662462562464,-0.00974431223359488,0.0122997381354823,-0.0302967406449412,-0.00370641054600311
398,1918,0.0661637678239088,-0.0239889198121873,0.960351401836531,0.105762634304203,0.00820263367214415,-0.00970454466394318,0.0284726225503878,0.00854541365221583,0.0209713073158221
399,1919,0.0672705440307296,-0.023876324765623,0.96025907803271,0.106290775052534,0.00751861330653646,-0.00967997882073692,0.0859113415360636,0.0154767712099622,0.0146920055704337
400,1920,0.0683786341972883,-0.0237791939426497,0.960172404410766,0.107131610846945,0.00699517804947888,-0.00918628197366683,0.148150541756575,0.045429161645799,0.0390887811087386
401,1921,0.0694773541473667,-0.0236866476456253,0.960093016952253,0.108337711564288,0.00708887903046094,-0.00841399930437168,0.156275481879065,0.052935661317782,0.0804308182473975
402,1922,0.0705853136743047,-0.023602627735507,0.96002130948646,0.110468376118485,0.0066657208530525,-0.00751369463674646,0.181161459602896,0.0633280102028059,0.12040372929013
403,1923,0.071711806562172,-0.0235276398066666,0.959954804307159,0.113164673863062,0.0063830852145758,-0.00663520432247418,0.184855651280964,0.0771979778942605,0.138673889716584
404,1924,0.0728760962152286,-0.0234504396482829,0.95988726290319,0.116431620746854,0.00702128622453964,-0.00654835021917364,0.125463336505873,0.0908333895956872,0.108252667821118
405,1925,0.0740683176974152,-0.0233662774921077,0.959815968848202,0.119052126377156,0.00834390990011729,-0.00659397681318477,0.0932838211789082,0.101829858377502,0.0862168557602618
406,1926,0.075311912835577,-0.0232728111456215,0.959731564726164,0.120670229318596,0.0093399028175122,-0.00714980065794914,0.0998720233429617,0.0758054522557992,0.0127082175957117
407,1927,0.0765419662316627,-0.0231812325727801,0.959651223203042,0.121241620830176,0.0103765240921491,-0.00711704852139714,0.0911007238701323,0.118707440407822,0.0259793785835727
408,1928,0.0777802454808569,-0.0230892793227542,0.959572321120096,0.121284426582887,0.00980755596069113,-0.0066912874810338,0.13232708801982,0.0965479169410071,0.0348620811002383
409,1929,0.0790225952483817,-0.0229897922436869,0.959500271571093,0.121553063371109,0.010491673386377,-0.00590543144472991,0.222776697191805,0.0888556179058351,0.0332089307301715
410,1930,0.0802899428037288,-0.0228782356080945,0.959430268293999,0.123605941243403,0.0107828881618015,-0.00542737570509873,0.196679119707695,0.0983180098595807,0.0669956661612574
411,1931,0.0815804833886782,-0.022735599027726,0.959362760304476,0.125847356789019,0.0126058699763414,-0.00477944802888214,0.184121433262147,0.0793200469162148,0.0840078443770105
412,1932,0.0828821129321902,-0.0225611944665906,0.959301149694005,0.126871121006184,0.014403716333699,-0.00389602187192401,0.170889547928303,0.0725469989870428,0.0711552244317158
413,1933,0.0841693312447962,-0.0223659010223789,0.959248128496136,0.126404786734787,0.0159090228308468,-0.00291503813786386,0.13741407204107,0.108905538220953,0.0568174821417001
414,1934,0.0854408529357052,-0.0221572950560631,0.959222256238074,0.125939356317013,0.0171883012941438,-0.00247931227417034,0.0723306889108998,0.183505161004435,0.0209118506949877
415,1935,0.0866709224260379,-0.0219337364314387,0.959196495972576,0.124615044214251,0.0179840559947258,-0.00195596998267736,0.10840991394158,0.12324004514643,-0.000981177542303081
416,1936,0.0878865820939562,-0.0217201357908599,0.9591722512123,0.12383623633943,0.0186329738050543,-0.00124801515013841,0.103881749952412,0.161867089755759,0.0452342463411805
417,1937,0.08908978677712,-0.0215248310895146,0.95914881018795,0.12288577996581,0.0188954445175689,-0.00101948182049741,0.0884894142394298,0.169273497618159,0.0207985039632428
418,1938,0.0902914018755787,-0.0213649884996986,0.959126424080966,0.122271111476603,0.0184075539057022,-0.00102547885069355,0.0789524447273031,0.166359250905372,0.0117901976398977
419,1939,0.0914900532043736,-0.021250131340236,0.95910998030157,0.121220644530072,0.0177346077666578,-0.00105646956546194,0.082458935791547,0.182718324899845,-0.0150186059637846
420,1940,0.0926835941043408,-0.0211671388576553,0.959105291481756,0.119102038777792,0.0160955690212499,-0.000585048337547367,0.0288561532813954,0.158750387739103,-0.0123080633928421
421,1941,0.0938463543240235,-0.0211087162492867,0.959115950267162,0.116269587402599,0.0146723409138455,-6.0029039025758e-05,0.0122093209532569,0.138145882471413,-0.0361677935874823
422,1942,0.094961475777963,-0.0210290895390429,0.959160542468295,0.113056873180812,0.0149474389471901,0.000639397898109317,0.0107420451361567,0.152310464654854,-0.0720959438312014
423,1943,0.0960272253286134,-0.0208965348881255,0.959205337037049,0.108626264433755,0.0170222300963587,0.00141441985441041,-0.0802192847566535,0.186073519502386,-0.0667488793500235
424,1944,0.0970700560495793,-0.0208188233815438,0.959258753866279,0.104202629030622,0.0188485783885254,0.00219137482750096,-0.0963122383020358,0.218210630646729,-0.0870499387521232
425,1945,0.0980209966280572,-0.0206523320089828,0.959359881014629,0.0993425741150466,0.0201009868041934,0.00287730359385402,-0.0646363417428582,0.187879177346105,-0.125392272065256
426,1946,0.0989417374453798,-0.0205373242487749,0.959481472107128,0.094184280849046,0.0205409204867957,0.00304352449465341,-0.130715045079129,0.170121816895796,-0.160948025887109
427,1947,0.0997188595779342,-0.0204267417350458,0.959615427505075,0.087785016257883,0.0201071908422896,0.00314276519806225,-0.174166160618853,0.166685735294803,-0.166792093451392
428,1948,0.100375061710057,-0.0203262539981832,0.959751203462615,0.0801421793882001,0.0188218347039714,0.00284161505821133,-0.237038355291136,0.118992515382134,-0.191411841142963
429,1949,0.100916754334611,-0.0202127881180698,0.959874386797814,0.0723712969812053,0.0168023416617998,0.00165322847166621,-0.181288822174879,0.005491914116751,-0.254498019817131
430,1950,0.101376214381787,-0.0201238940712769,0.959976232480533,0.0645515681762167,0.0151538210315786,0.000926971212032444,-0.136285798105267,0.0668398650863688,-0.215258743209752
431,1951,0.101771750269261,-0.0200574094041979,0.960047559191357,0.0572055858205074,0.0141059538639881,0.00035469758479335,-0.17542062824498,0.106659966806941,-0.152779195942337
432,1952,0.10209681797095,-0.0200158542456142,0.960087005801372,0.049883372172184,0.0142061901803611,1.65017915687656e-05,-0.128906322637514,0.0795419399752982,-0.119168271309953
433,1953,0.10238945973892,-0.0199694712344184,0.960078392818268,0.0445766274719854,0.0147367362559879,-0.000837962699144732,-0.179942986642397,0.191336557235998,-0.070633811526883
434,1954,0.102684863948219,-0.0197535293498189,0.960065276477709,0.0400039239744217,0.0194498430987458,-0.000764579637439149,-0.161761463449181,0.229610312067706,-0.00489408959708426
435,1955,0.10307596105698,-0.0189013893035303,0.960061557650639,0.0390345526534719,0.0349796344911143,0.00013594791004557,-0.0209630547585209,0.13978371538442,0.0603238952538756
436,1956,0.103628485974217,-0.0171827575239943,0.960073347358484,0.0424682680412529,0.0621730803112283,0.00135515281438207,0.0185880281166585,0.0958367867851718,0.127020551906852
437,1957,0.10432114889008,-0.0149209421524157,0.960104244334844,0.0478649976613518,0.092368698228671,0.00260219146194765,-0.0566108948106386,0.0767594307827001,0.173766055546275
438,1958,0.10511290024629,-0.0125421137966454,0.960157582174299,0.053778385592131,0.119750751953655,0.00333592687122543,-0.218794097443727,0.126498724505739,0.168236874029807
439,1959,0.105920257116618,-0.0103230860423141,0.960239805476626,0.0578471314031661,0.138933196579324,0.00533848462826699,-0.235663110258478,0.0478918774030226,0.231178805694606
440,1960,0.106708569438727,-0.00837436984497262,0.960349494319211,0.0581519559313932,0.149964429632628,0.00681305041296605,-0.397951837848051,-0.10024251270564,0.151874574894162
441,1961,0.107434861764945,-0.00677055674398157,0.960481386535007,0.0572726599975162,0.153159028602548,0.00953234429742228,-0.308752003576605,-0.088752026828016,0.219515906557289
442,1962,0.108112202471952,-0.00551423370004593,0.960634568018671,0.0562185749805912,0.150209809781235,0.0127602331571097,-0.28681403517457,-0.0455732407483128,0.290461792018543
443,1963,0.108739479192213,-0.00454221266426837,0.960801860964246,0.054592889498923,0.142663578279967,0.0143908176860569,-0.431450237544827,-0.0876244330791006,0.22735005771386
444,1964,0.109317241211564,-0.00381909069146346,0.960975934440222,0.0542522497833589,0.132900193006405,0.0166361636138888,-0.357121092408117,-0.0324063676244891,0.316482912975914
445,1965,0.109867810547382,-0.00320399616359399,0.961156596764033,0.0525485856886271,0.121038608070637,0.0184038414084938,-0.346165750720983,-0.063021829213921,0.270647867046758
446,1966,0.110333263605068,-0.00281122992267441,0.961345837227777,0.0498359985525252,0.109019054385571,0.019906721513092,-0.326709862921271,-0.0668803504846791,0.228499891916449
447,1967,0.1107378934762,-0.00253469666303467,0.961539453343664,0.0454651056160471,0.0980484058244219,0.0207368481430283,-0.432087212346725,-0.0337063529450554,0.162606484589397
448,1968,0.111074058195919,-0.00235080211173977,0.961736894441239,0.0395511047819539,0.0858870988389494,0.0215634932165608,-0.441775213684584,-0.00193447518819519,0.122642791168065
449,1969,0.111359546150891,-0.00222692514449738,0.961936296574377,0.033956409053268,0.0753286137876881,0.0212859740596331,-0.469761920485854,0.0509370172270954,0.0309059856120221
450,1970,0.111603047234531,-0.0021372833610542,0.962135823500906,0.0276976878427206,0.0657283276149886,0.0209773186923533,-0.507438526000798,0.0685233373916856,-0.00462482207398768
451,1971,0.11183130717124,-0.00207059728131406,0.962334776924794,0.0225061791411144,0.0573661635102015,0.0200659855685222,-0.442908435275466,0.0795678476847225,-0.0851304234728801
452,1972,0.112049430358696,-0.00199450578886166,0.962533529056359,0.0175042386207575,0.0507981793294368,0.0194204409531113,-0.390445426821566,0.0306002185750186,-0.111955500414005
453,1973,0.112268187534798,-0.00189216078935284,0.962725615895806,0.0141614353462881,0.046247226800718,0.0178212249699409,-0.276548959032229,0.0659447077350628,-0.196457234563354
454,1974,0.112521960864641,-0.00173084511782842,0.962893657928968,0.0136693919124363,0.0448679317523665,0.0147828267455196,-0.344387491095333,0.0923887783674816,-0.236721917297336
455,1975,0.112788122385823,-0.00153449456655678,0.963040787050834,0.0130468403115252,0.0433634549675701,0.0118052030775538,-0.260358252762273,0.143385048022186,-0.267027108383946
456,1976,0.113041061765912,-0.00130625217299537,0.963169450405177,0.0113616699784317,0.0417227895937957,0.00906222645223917,-0.304386617428049,0.173974662469319,-0.255359215950153
457,1977,0.113261368257439,-0.00107736718233014,0.963291592202359,0.00868832473455112,0.0398697821402301,0.00755676198130068,-0.199421628799168,0.106876419936305,-0.23206422639648
458,1978,0.113445700368667,-0.000861052094474077,0.963414310866174,0.0043294126661504,0.0377284181766565,0.00651822157758728,-0.163940010069804,0.0905297126959684,-0.276503881219153
459,1979,0.113584944992001,-0.000655076095227389,0.963539431272378,-0.00175321760692783,0.0365255753607637,0.00601761787947262,-0.1605010515715,0.0718469093760718,-0.31494047963432
460,1980,0.113688939473854,-0.000467567770732529,0.96366011618817,-0.00803580482980902,0.0354491174257521,0.00553766644945744,-0.236683790639447,0.159551811172227,-0.332008677489705
461,1981,0.11376134657155,-0.000286743836110342,0.96377836742823,-0.012293921318727,0.0342663933021991,0.00481062998954816,-0.277223830344001,0.138503244017133,-0.282248771626138
462,1982,0.113791333026917,-0.00010148268923471,0.963896313884818,-0.015718839261386,0.0349976874396122,0.00449735407162624,-0.310734624196392,0.241282050488623,-0.232353623249368
463,1983,0.113786300290287,0.000120528787770723,0.964009828983192,-0.0164537657040116,0.0355981962450998,0.00286986186465875,-0.277918582847096,0.177466846207329,-0.277861132366142
464,1984,0.113740210849944,0.000401922475590684,0.964110818114951,-0.0164050617876466,0.0370752241502289,0.000431191403893315,-0.24431135432477,0.137714803183023,-0.334415573010353
465,1985,0.113669470846015,0.000732780695771699,0.96419672523357,-0.0164621732269127,0.0391229467851942,-0.00144576753301311,-0.202523445016151,0.174071093319862,-0.298827849791634
466,1986,0.113621088742727,0.00119104885018971,0.964264090473803,-0.0166043948805645,0.0416818890295671,-0.00347584560519875,-0.195275752891928,0.19522134589726,-0.333073592583077
467,1987,0.113556434280925,0.00161714759447216,0.964317828165354,-0.01788397730151,0.0444845461427811,-0.00546706959346784,-0.249116763583442,0.258131827256332,-0.359673694080653
468,1988,0.11348879021729,0.00205159915506746,0.964359448905026,-0.0193387368873968,0.0462310211450896,-0.00689886910743726,-0.251373071204787,0.192332382410202,-0.326246444773104
469,1989,0.113401371527227,0.00248283021453597,0.964397187904038,-0.0220576527619621,0.0459026272381848,-0.00704145704086374,-0.198683350312509,0.0334668193010428,-0.249071976969048
470,1990,0.113298228619119,0.00288915580570746,0.964431008203286,-0.0238488685933912,0.04422320203601,-0.00770212071413379,-0.141788863473911,0.0208804645026689,-0.255306584133562
471,1991,0.113164426912083,0.00327846602458097,0.96446947434774,-0.0275635388897958,0.0423406035423798,-0.0069202541432823,-0.14615918915565,-0.0204395035181098,-0.169437043729768
472,1992,0.112747252273397,0.0037298731760218,0.964377022136832,-0.0379215433301999,0.0427420641580866,-0.00865707397134409,-0.156930621098021,0.0312666747029894,-0.181790411997967
473,1993,0.112278273248712,0.0037489137636037,0.964442199147127,-0.0457164416819296,0.038996510306301,-0.00795978059708471,-0.139172355429208,0.145971507159666,-0.171110464245559
474,1994,0.111552383604793,0.00410837792369186,0.964500887070126,-0.0534246539092828,0.0393578445930079,-0.0073620556275235,-0.227828978554156,0.275552091847914,-0.12167691521706
475,1995,0.110942747324219,0.00443375373494966,0.964564006052482,-0.0574202709825908,0.0400042984459474,-0.00595598766748525,-0.125773103756745,0.239029428961361,-0.0225660662513248
476,1996,0.110476990788085,0.00481860458151584,0.964643196515123,-0.0563287774912369,0.0412239582984052,-0.00433442611688442,-0.025264144202582,0.199417811743163,0.0141170030188677
477,1997,0.11009480715915,0.00525033932097096,0.964732287472187,-0.0534189094780482,0.0430257672737037,-0.00173977271704913,-0.0151900635193223,0.204926818657889,0.127863311878519
478,1998,0.109749605702517,0.00573289896060771,0.964837236220629,-0.0502399596672688,0.0448704844565377,0.00171087522499353,-0.0602561713791649,0.197069533616744,0.207047036726831
479,1999,0.109443515884907,0.00627725939633992,0.964941585087093,-0.0457873605194669,0.0465942946204013,0.00442217637840617,-0.136621726460955,0.13539208261766,0.246774813882295
480,2000,0.10912711447905,0.00689283887400811,0.965049333555223,-0.0432750172327264,0.0486276205551545,0.00769159681650626,-0.110078394588874,-0.028265342970926,0.285876420882363
481,2001,0.108837406898368,0.00752620664560435,0.965151517545855,-0.0400488969783547,0.0495282876669087,0.00931399126998022,-0.145873423821761,-0.0630476163895033,0.240694057382936
482,2002,0.108583715386086,0.00817252480918183,0.965243441208918,-0.0361252910100862,0.0507466198692937,0.0106854277716529,-0.142687430472716,-0.0934586827145924,0.255851857805327
483,2003,0.108377290068673,0.00881527962329597,0.965327505610227,-0.0323295002917621,0.0522030499168818,0.0116856022964014,-0.14211642767159,-0.0980234314933547,0.225999190571234
484,2004,0.10822337601324,0.00945646349348689,0.965401129229919,-0.0281272438669899,0.0533993245875303,0.0123185942404027,-0.131622261098651,-0.11529965479472,0.203047470414556
485,2005,0.108127179260696,0.0101009760336699,0.965460309483651,-0.0239442812923339,0.054680771254704,0.0121090398026192,-0.140351498013089,-0.149796337622766,0.12146433895407
486,2006,0.108094456288775,0.0107913435227083,0.965492845779104,-0.0203882073971829,0.0564228090807323,0.0109414896795041,-0.144728122630569,-0.132252383179504,0.0128093490437108
487,2007,0.10804268683714,0.0114955033148661,0.965499430087152,-0.017699648033628,0.0593545860601438,0.00896573164151066,-0.14648392690756,-0.0198773815679878,-0.0666626769984415
488,2008,0.107952647141893,0.0122480187280947,0.965482600337123,-0.0158526059173467,0.0635046230843802,0.00667106120093777,-0.0290489936143104,0.0498633292889083,-0.128743524188202
489,2009,0.107822173490639,0.0130528412371257,0.96543589613627,-0.0138955483095695,0.067816506193391,0.00351104844915752,-0.0562301610400014,0.107393395078254,-0.154915495111429
490,2010,0.107642503286012,0.013890020047518,0.965361881067711,-0.0124478408871222,0.0721983193941906,0.000309114026494668,0.0326508453873079,0.18627916978525,-0.160706145743322
491,2011,0.107415203224515,0.0147453016420525,0.965267901473799,-0.0123666713846205,0.0755722370546698,-0.00211947008887582,0.067808055467357,0.187743962526556,-0.11289929809791
492,2012,0.107145439004951,0.0155943885531148,0.965159488298913,-0.0132064294167676,0.0773489110558129,-0.00463905848249423,0.0591305151045693,0.134177717092568,-0.116214677092868
493,2013,0.106854403248311,0.0163956360656609,0.965043658960545,-0.0142538635143715,0.0772318942754139,-0.00587679526967329,0.119990090592006,0.103418353857545,-0.0208691061006603
494,2014,0.106554278224909,0.0171385547405477,0.964934339033381,-0.0166593270639765,0.0763660226004885,-0.00580496834441568,0.148704871032564,0.0801005068723198,0.0422285535405237
495,2015,0.106267709368564,0.0178147788022806,0.964834538058089,-0.0187336141813828,0.073514575372653,-0.00538819812980638,0.0638654005442365,0.0960757145108251,0.101145037353963
496,2016,0.10599861799191,0.0184575293708403,0.964758980424598,-0.0210324649205128,0.0717055622266834,-0.00379437151942519,0.0383434562680695,0.0667335953163762,0.161569783181531
497,2017,0.105745742640761,0.0190751456168337,0.964704309835276,-0.0237212888703928,0.070459202917278,-0.00195338176168119,0.00471352730437519,0.0271717898106548,0.16676262501312
498,2018,0.105530557564191,0.0196613660589417,0.964668566736687,-0.0256665987745176,0.0677804316632525,-0.00023065759189045,-0.0344865435093437,-0.03429271472997,0.164062375864904
499,2019,0.105338699612159,0.0202125691668856,0.964638991942926,-0.027207710505917,0.0655621295184239,0.00125184143422626,0.0118914986554107,-0.0243148641958167,0.108104707689843
500,2020,0.105200449713829,0.0207404102643615,0.964635925137895,-0.0266738526610496,0.0636299280474814,0.00238196100019369,0.00163536006072876,0.0285451601798252,0.108282696449619
501,2021,0.10509320007784,0.0212572224731065,0.964640599990474,-0.0252495718124734,0.0609547992505005,0.00311754171284954,-0.0342301492592241,-0.0935104320513033,0.0827106029505248
502,2022,0.105003087011624,0.0217529835146589,0.964651519107641,-0.023050759461447,0.0573210464598071,0.00412762961511146,0.0561960907777608,-0.10655267146306,0.0838454005238481
503,2023,0.104929190558999,0.0222152262743903,0.964666287853809,-0.0198399433908455,0.0525106883768161,0.00449503055275437,0.0626335936659064,-0.226827274513279,0.069045557057768
504,2024,0.104851710062005,0.0226328526818498,0.964684954948337,-0.0168580190837869,0.0470420400960555,0.0044200941507678,0.0787132352119377,-0.218717007472609,0.0338463894015729
505,2025,0.104754129566882,0.0230044923767855,0.964703758459381,-0.0146329220977178,0.0410703153685263,0.00380848572735348,0.0962137025755177,-0.286629212394881,-0.00842030510611378
506,2026,0.104664771709264,0.0233367046041926,0.964714026255043,-0.0129109893833618,0.0359730697871698,0.00253135310811162,0.094771287115537,-0.212158946177308,-0.065716403381863
507,2027,0.104546887971724,0.023625781954811,0.964722210272685,-0.0119631503888562,0.0321704593450933,0.00131717372929234,0.143256337155426,-0.166472499906434,-0.0977609168189997
508,2028,0.104443417484712,0.0238933058607918,0.964720462487358,-0.00977647835441346,0.0288976209122801,-0.000675204586838889,0.114911353754913,-0.117745483146262,-0.127953548572612
509,2029,0.104383492932409,0.0241660938971098,0.964705297860571,-0.00632829484459138,0.0270219274799183,-0.00275780668311808,0.0671866244349607,-0.129530450752595,-0.110881816313065
510,2030,0.104360859812957,0.0244442586619705,0.964682105342513,-0.00378710471345031,0.0255008751127208,-0.00384219101196796,0.0903485184345635,-0.120090204978339,-0.0778043588501482
511,2031,0.10438547525697,0.0247511326378234,0.964651694709808,-0.00140099605471798,0.0258295942379754,-0.00429910236820629,0.0940447313052619,-0.0734356994111476,-0.0413897309602022
512,2032,0.104451835409228,0.0251082445439323,0.964614459308779,0.00135653073221773,0.0274366947605843,-0.00445736601148296,0.0922369437962839,-0.0986172392624733,-0.0166370488312283
513,2033,0.104555526246023,0.0255037414140979,0.964573639713197,0.00366077448426118,0.028963620908072,-0.0038190741496274,0.106473139881115,-0.0672005351487766,0.0447156552214665
514,2034,0.1046994094668,0.0259466014145136,0.96452461099558,0.00640175453580799,0.0320385473225077,-0.00385595368666854,0.0070580086403175,-0.0805956832488742,0.0288842021372515
515,2035,0.104858233629453,0.026437539192976,0.964467251367477,0.00828806437129049,0.0355031009468629,-0.00339295679945392,-0.0218412164770245,-0.0418049593393562,0.0681059262811499
516,2036,0.105005117056408,0.0269683846879465,0.964404907876888,0.00886215600229584,0.0385693469992514,-0.00318733946043228,-0.0227455680839954,-0.0965810555080045,0.043731668830298
517,2037,0.105132352191927,0.0275152623180528,0.964339024849295,0.008805065463754,0.0407006306297306,-0.00253911126094476,-0.0273371856499312,-0.114155680164035,0.0805647290572512
518,2038,0.105245573241167,0.0280593234375289,0.964270584574537,0.00939130327111655,0.0418415518946504,-0.00219500061124471,0.000345423150783777,-0.131253783799767,0.0831324963259851
519,2039,0.105358130309829,0.0285895670870943,0.964200738285066,0.0100860913944206,0.0425570705846672,-0.00150603543741453,0.0161645658500585,-0.0841223326421112,0.126221145582326
520,2040,0.105488009644863,0.0291193519572416,0.964127805415454,0.0116603249834829,0.0438601882696249,-0.00190325097953043,-0.0272725007918731,-0.183151871494939,0.066421398839465
521,2041,0.105615098339977,0.0296463771526217,0.964053485396709,0.0115249103908899,0.0464091873977447,-0.00206524063371029,-0.0034152266992879,-0.0795351932242225,0.0273224545917947
522,2042,0.105734853181723,0.0301491825013965,0.963981971834406,0.0107910692444288,0.0454111609565263,-0.0013321315712708,0.0147147296397606,-0.101822918234189,0.0887277127079126
523,2043,0.105832796226699,0.0306389200829486,0.963916839935161,0.00917521641913266,0.0441840038642739,-0.00113099663995935,-0.00424081925773549,-0.144080875973446,0.037110500096041
524,2044,0.105902018542509,0.0310924124517371,0.963860591772974,0.00712664369927135,0.0410051981779686,-0.000528931608469618,0.0584307397439014,-0.120645239800228,0.0489441466678646
525,2045,0.105967483829829,0.031513870284054,0.963809477513549,0.00660664280628275,0.0382371557838799,-0.000615676701596733,0.0680475066371804,-0.163970487823284,0.0186134456549275
526,2046,0.106088792926673,0.0318870169688803,0.963747092860963,0.00852051037117658,0.0347161882567264,-0.00170118207250169,0.0241960199458314,-0.0851421977310244,0.00122195259956757
527,2047,0.106222306452012,0.0322240941924982,0.963685054374062,0.00983858038350138,0.0321994851753324,-0.00213828605793204,0.032517160649023,-0.0496266984493328,0.0134807478002219
528,2048,0.106374636466371,0.0325501574002402,0.963621658267544,0.0106391553363254,0.0306162777129657,-0.00275655700242387,0.00983823893700511,-0.0244270422571109,-0.0171692582344657
529,2049,0.106546709782776,0.0328814089246857,0.963553591066574,0.011717328287683,0.0297047831712598,-0.00343854233906146,-0.0100434448715234,0.00990161753625028,-0.0200224173160616
530,2050,0.106738002231363,0.0332168424200373,0.96348138221663,0.0129781848716823,0.0299067197478747,-0.00431562782714415,-0.0104800156445046,-0.0156659189476265,-0.0381571537169669
531,2051,0.106967744776761,0.0335547201278141,0.963400691547434,0.0153331671463631,0.0312865636664162,-0.00505953907117689,-0.0482615134452542,0.0284353528774541,-0.00936002827364818
532,2052,0.107241315286893,0.033897799605331,0.963309970416096,0.0183949198220716,0.0323815917688414,-0.00619239363045958,-0.0383430640961017,0.00858678393380652,-0.0341138358475792
533,2053,0.107552552036094,0.0342389099307339,0.963211032778242,0.0207433687482117,0.0320904056213373,-0.00653800124575168,-0.102226724451902,-0.037162668793476,0.0252275124698106
534,2054,0.107878606779468,0.0345730252377091,0.963109320073012,0.0226106286035203,0.0315840062585399,-0.00659678457456544,-0.042940598933325,-0.0428032426667027,0.025912480939581
535,2055,0.108210700943339,0.0348994565704996,0.96300878835761,0.0238960243232027,0.0309869540974321,-0.00648799427660207,-0.0123079002561063,-0.0162182568811097,0.0273632570074337
536,2056,0.108527993537685,0.035225034292013,0.962912076999723,0.0240992328884636,0.031035533247096,-0.00593059950268943,-0.0323649346432565,-0.0411658985676456,0.047397986351806
537,2057,0.108827939551044,0.035552908118854,0.962821438060163,0.0238895015984294,0.0314511529940032,-0.00498014461203925,-0.0089400518769109,0.0300859688579347,0.0765369846399258
538,2058,0.109104131248429,0.0358868686467404,0.962739065292512,0.0231268189336796,0.0316447556160394,-0.0037278334266061,-0.0185799320107617,0.0142217178855704,0.10572359227215
539,2059,0.109378237607467,0.036225736086625,0.962658939125727,0.0237957441403526,0.0321032345820972,-0.00326931466158888,-0.00786569143584931,0.000927626572789901,0.086833906710593
540,2060,0.109664591565772,0.0365580237214301,0.962577637557069,0.0248456840847017,0.0318154427915475,-0.00298512869860562,-0.029863269204501,0.00449407969307193,0.091679040145391
541,2061,0.109968194746287,0.036909265197342,0.962491421706758,0.0264963677136119,0.0333209015604363,-0.00336818874447854,-0.0539593185116493,0.0323610512068049,0.0538871507039212
542,2062,0.110277184546833,0.037285727935562,0.962402256537881,0.0273644779633754,0.0348989255491854,-0.00338799083302234,-0.0238785648512697,0.0481672672401547,0.0542504539229832
543,2063,0.110598936328332,0.0376893865998558,0.962307968771478,0.0281934636145277,0.0360951421969555,-0.00384742458837479,-0.0702226935045114,0.0258937532064465,0.0349092678150246
544,2064,0.110917571289377,0.0381189599058217,0.962214408292881,0.0281499841299741,0.0378105263837171,-0.00368045913498847,-0.00246920782525785,0.0170322292533594,0.0401122054177705
545,2065,0.111248322568329,0.0385656354909955,0.962118020142523,0.0279485190673429,0.0395492270614479,-0.00397995381094546,-0.114349266246993,0.0412458734005535,0.0271249202693816
546,2066,0.111590780518373,0.0390171369288679,0.962014142536073,0.027235586422143,0.0402513899260128,-0.00430719305219512,-0.114847897163854,0.0635436758174173,0.0056595879441369
547,2067,0.111901244357715,0.0394716495357358,0.961913577752514,0.0263701333865375,0.0412729862809967,-0.00462612530704122,-0.0526044530619069,0.0480962836108878,-0.01782940566834
548,2068,0.112206802022652,0.0399241440803625,0.961809183965232,0.0261959746488419,0.0420657120178038,-0.00563639139035204,-0.0837441521287003,0.0252348644377807,-0.0514505180155241
549,2069,0.112514353325898,0.0403729759066547,0.961698872947669,0.0266468818470301,0.042964114298381,-0.00671979977187418,-0.0539805056755083,0.0339499250323528,-0.0629931688757094
550,2070,0.112823634744618,0.0407992990851402,0.961580440354388,0.0271735439704198,0.0428289710116589,-0.00811691548362567,-0.0933231398331914,0.0768913463177673,-0.0790870266750149
551,2071,0.11313777074258,0.0412207805598647,0.96145545011717,0.0275235884973531,0.0426394305863297,-0.00858162568001706,-0.0688553773161304,-0.0126463868457449,-0.0193402957543971
552,2072,0.113451701462263,0.0416294121957753,0.961327057547709,0.027289778131226,0.0420381587865239,-0.00915170083336937,-0.0787705470936363,0.0564434728179954,-0.0365975548919
553,2073,0.113759253195208,0.0420387236766442,0.961196570748978,0.0272996965428809,0.0409302706070888,-0.00881390496764496,-0.0579467092240759,0.0221632700179634,0.0463391297606561
554,2074,0.114061181319623,0.042446286317417,0.961068636378203,0.0267566413153328,0.0402109887020531,-0.00827574323082186,-0.105746355350513,0.0446522030262069,0.0787876773456829
555,2075,0.114356316467804,0.0428487892535485,0.960943899031526,0.0265584488420442,0.0386850679869029,-0.00771580226819869,-0.0709020363014381,0.031618257485707,0.0854884984357358
556,2076,0.11463774572827,0.0432383772976812,0.960825983036584,0.025605632816598,0.0369982069235342,-0.00678151101619187,-0.0752716731417655,0.0565245186353395,0.109222439772659
557,2077,0.114919454749698,0.0436224492241358,0.960711260794039,0.0254702155339179,0.0364393700346206,-0.00680519638877959,-0.0731302677244126,0.039031739235843,0.0490224545388652
558,2078,0.115210236781556,0.0440004311911494,0.960596896342076,0.0252779677099755,0.0360508160811348,-0.0069462459100688,-0.0888608125678652,0.0484903043596518,0.0358663853342288
559,2079,0.115524904917375,0.0443729312894432,0.960482146407381,0.0265439479549849,0.0369873768434656,-0.00719356344913337,-0.0617358702134439,0.00549922835072788,0.0449924798059453
560,2080,0.115875492232264,0.0447269328971884,0.960366414322693,0.028049764575611,0.0375181228845353,-0.00739354803769008,-0.0642160479837555,0.0421970352143404,0.0410299254927865
561,2081,0.116249506366611,0.0450660247845819,0.960249255665366,0.0293065210551837,0.0377287368089727,-0.00744899068176661,-0.0555512127064296,0.0899290139446626,0.0414810428603822
562,2082,0.116638528357518,0.0454024338475999,0.96013290402344,0.0303870614990405,0.0374251597191951,-0.0068890271569191,-0.0667222825775974,0.0666929088231168,0.0868037818923754
563,2083,0.117024140776924,0.045746276595621,0.96001915209067,0.0310171738334098,0.0371100541724055,-0.00640635009257114,-0.0329671085563503,0.0381692269729875,0.0756056860321268
564,2084,0.117406543581818,0.0460951883613723,0.959909470052114,0.0317151855230998,0.0364182656962936,-0.0061083886762658,-0.00940722543377387,-0.021274520121122,0.0551100892460726
565,2085,0.117796755719582,0.0464505226952292,0.95980098738242,0.0328950295610362,0.0363674757879239,-0.00642285733000903,-0.0331056710131963,0.0456849749634283,0.0206168905602696
566,2086,0.118200027303546,0.0468189433211805,0.959688253872057,0.0324444814219225,0.0366388921112755,-0.00614489748652595,-0.0181297067652062,0.0509892800527979,0.0213753051076528
567,2087,0.118584653399864,0.0472126263260077,0.959574350411963,0.033040320143523,0.0377028306635311,-0.00680724239724464,-0.0572148137253561,0.0646071161775356,-0.0124674501293333
568,2088,0.118965521336135,0.0476378412745939,0.959455535902152,0.0331684020857292,0.0396192588320521,-0.00746807441476828,-0.110248845954525,0.0380816335421965,-0.0114896765876277
569,2089,0.119325226345755,0.0480860688319328,0.959306752553873,0.0319076199584886,0.0402859777168033,-0.00760070274230236,-0.0457894914250524,0.039844345224948,0.0153886627172365
570,2090,0.119674002976074,0.048559244451149,0.959160870180914,0.0316370193918636,0.0418503777825453,-0.00800393724377521,0.00270225359037158,0.0368319831088725,0.00892553887517827
571,2091,0.120006514331764,0.0490573875085554,0.959026391630118,0.0302999360427114,0.0434025339884224,-0.00753447824719135,0.00352195237784683,0.0489804519035774,0.0484719865966272
572,2092,0.120319373844287,0.0495915705435955,0.958911789273642,0.0293027111535894,0.0458518836595433,-0.00643920847206956,0.0117377720523894,0.0460242946397064,0.101039048787193
573,2093,0.120618324883509,0.0501616430748093,0.958817930562271,0.0283083339070337,0.0484448124856463,-0.0055042886908676,-0.000955986886349956,0.0335950221335519,0.0903228149708276
574,2094,0.120907229493504,0.0507836255184492,0.958740215448648,0.0273792042347303,0.0516353412106632,-0.00431959455445756,-0.00566311087678393,-0.0264607624984276,0.100176637407541
575,2095,0.121202153310734,0.0514451104269125,0.95866935266022,0.0272079587390453,0.0554531353264685,-0.00386867645737283,-0.01159669014478,-0.0196591855250294,0.0584387103926223
576,2096,0.121497239296825,0.052125834293722,0.95859993090841,0.0262169292146712,0.0578909262189691,-0.0035238996864968,-0.0100013854591215,-0.0180774435428954,0.0245417757052692
577,2097,0.121809093377297,0.052823345154559,0.958523992397,0.025857349318576,0.0606278191422495,-0.00405215420379892,-0.029798468793288,-0.0241057139714945,-0.0358860799034206
578,2098,0.122133740991183,0.0535196344870061,0.958437233390869,0.025649885389148,0.0622176687354912,-0.00526281467307878,-0.0657347143463394,0.00932995960041948,-0.0909139419798633
579,2099,0.12245545729261,0.0542024941191894,0.958338412328196,0.0249620084236327,0.0629673225851072,-0.00688769046456358,-0.0469184535430835,-0.0175182705903757,-0.154136603342764
580,2100,0.122770427209124,0.0548684656662721,0.958226896291412,0.0242772322315289,0.0636612150121901,-0.0083016716193972,-0.0194629414631723,0.0290966588112766,-0.152862966082342
581,2101,0.123075333936533,0.0554984346656711,0.958125676297581,0.0231661258729213,0.0621161746362522,-0.00896141565794571,-0.0357167273132964,0.0379716832810765,-0.113808337935399
582,2102,0.123379067694963,0.0561109843912136,0.958003203300316,0.0236108820853862,0.0609605230680271,-0.0101480206965221,-0.00310751615752313,-0.00448271857101801,-0.129466141842956
583,2103,0.123670831625903,0.0566954570670489,0.957857840141969,0.0241252598411941,0.0586923312816252,-0.0109889404030085,-0.00866605520088229,-0.018056940799735,-0.0767921237146841
584,2104,0.123952005170352,0.0572381863791235,0.957792102409059,0.0238344509353317,0.0573606002904243,-0.0109479340734455,0.00357636926587157,-0.039944289698891,-0.0622235587289992
585,2105,0.124198462703565,0.0577699760356733,0.957720450153441,0.0236700509066264,0.055884637770527,-0.010781008541902,0.0224184378010184,0.0429390679451122,-0.0224257290630031
586,2106,0.124458444260809,0.0582262935143478,0.957507785480171,0.0236904334675006,0.053703923898252,-0.011662939890553,-0.0106292075269453,0.0184231918335669,-0.0195771352556395
587,2107,0.124633592331728,0.0586664237679843,0.957249966824087,0.0221433419549923,0.0526062118452603,-0.0124314026323725,-0.00418301482489478,0.0335642696229481,-0.00617796065375845
588,2108,0.124764227351236,0.0590295206574206,0.957052472779985,0.0195329138576238,0.0504556522950845,-0.0128870500789222,-0.0100258795529684,0.0309761127580595,0.0106547987155399
589,2109,0.124785141977622,0.0593789733490184,0.956829260989792,0.014946402193679,0.0486534829608908,-0.013994321375366,-0.111818475214138,0.0351262191294128,-0.0233440813808443
590,2110,0.124682172524875,0.0596732861436701,0.956587779983994,0.00749762879632196,0.0465820727228795,-0.0143649843631896,-0.0675410189945987,0.0593731317323358,-0.0232415125542909
591,2111,0.124467267691801,0.0599521890614763,0.95632531836185,0.000430137178842613,0.0442237951224676,-0.0160422011977052,-0.118707919635498,0.0685720032359746,-0.0615431264031562
592,2112,0.124155829240678,0.0602124514937856,0.956047916018076,-0.00787897330069798,0.0411014796283725,-0.0168068118387789,-0.102314084056216,8.00963137333017e-05,-0.0192726853863728
593,2113,0.123743814412408,0.0604631544424839,0.955763387719713,-0.0164003284061519,0.0373664896803595,-0.0169957523696524,-0.0466831998264444,0.00628041024705818,0.0100774166226211
594,2114,0.123244453726635,0.0606983425397413,0.955472380557551,-0.0246933125612884,0.0332644858159003,-0.0173276983713797,-0.0571745426749222,-0.0404904098981561,0.0237898579154578
595,2115,0.122657448847518,0.0609149673957988,0.955182901159669,-0.0334886208264801,0.02849557473427,-0.0169822991205126,-0.094523189424681,-0.0680289691248369,0.0758749189624908
596,2116,0.121978127886577,0.0611084180559946,0.954901319446721,-0.0416913559275119,0.024667128412263,-0.016915627993592,-0.111906280647092,-0.0677128992150014,0.0699357992661971
597,2117,0.12120574730726,0.0612614537169822,0.954636082872345,-0.0501743813507618,0.0212393691634353,-0.0173216340702925,-0.142067203560051,-0.0144395263914695,0.0217674439539491
598,2118,0.120330506965111,0.0613674597518064,0.954401968430144,-0.0593254635664888,0.0188760019211882,-0.0171372304028038,-0.0910981145629256,-0.0189081886793871,0.00202183068251594
599,2119,0.119364048378231,0.0614101199380967,0.95420050363031,-0.0685684022223596,0.0158993139287427,-0.0169949809216257,-0.122596212940247,0.0275423100469365,-0.0326931197212609
600,2120,0.118320635137433,0.0614069353079328,0.95402895678869,-0.0767074983848182,0.0135190157635774,-0.0169620047651557,-0.132940838707904,0.0236166255009082,-0.0507842804735042
601,2121,0.117189528043007,0.0613521408141537,0.95389485984374,-0.085616278067552,0.00961403178768004,-0.0158154480683251,-0.0621869350686909,0.00627014314675474,-0.0311028566084748
602,2122,0.115996411501271,0.0612609088428953,0.95379298223422,-0.0934112667989218,0.00619558963843447,-0.0149805476839082,-0.0981277312061242,0.0159473000264261,-0.0428697996604729
603,2123,0.114739235655287,0.0611409423903337,0.953726075731811,-0.101725027389724,0.0030658967964124,-0.0132322804098814,-0.0775693153465354,-0.00560294355328384,-0.0188831319838346
604,2124,0.113421422401789,0.0609940043944913,0.953689686991098,-0.109439495796774,-0.00052109918088885,-0.0116544964792011,-0.0632196633552294,0.00464176356512253,-0.0380044365388991
605,2125,0.112052037485337,0.060823048421874,0.953673963461542,-0.116485038909133,-0.00453367920285175,-0.0103159436975923,-0.0914246174894277,-0.0434370485580374,-0.0391521835285637
606,2126,0.110651406273802,0.0605962424217933,0.953672797067742,-0.124608072174198,-0.00902656855989263,-0.00843641405699076,-0.0590390195572743,-0.0585463185899728,-0.0439468275302839
607,2127,0.109158895491091,0.0603507253839145,0.953687819602715,-0.13174840533091,-0.0135173924000526,-0.00727354483968319,-0.0731081568328577,-0.103351802763267,-0.0659811059881466
608,2128,0.107677092554267,0.0600635899513653,0.95400821786239,-0.137978082804668,-0.0176353868742038,-0.00441185561386029,-0.0425557724050188,-0.0614372505194902,-0.0485977391925576
609,2129,0.106051672116208,0.0597665020183501,0.954294317778004,-0.14486791846647,-0.0212113097803139,-0.00179628997290591,-0.0353570248999368,-0.114118929667659,-0.0423534449098778
610,2130,0.104428435782489,0.0594580689532057,0.954565557258704,-0.150468968503361,-0.0231640744155184,0.000731432456266923,-0.0328433781848581,-0.0661837885465304,-0.0224326628814539
611,2131,0.102720419994328,0.0591500999411486,0.954830684105681,-0.156625354695894,-0.0248495123836461,0.0034189585982665,-0.0500346040937616,-0.06653302606295,0.00466295912122917
612,2132,0.100986631609478,0.0588457233893356,0.955091981035512,-0.161114783507019,-0.0262022750067658,0.00590118797670039,0.0236113398185426,-0.0604092968762255,0.0206757070681549
613,2133,0.0992269321345028,0.0585387789615555,0.95534747746099,-0.165422435839435,-0.0273365247784686,0.0075987126769757,-0.0333237784267188,-0.0667353327416619,-0.00844016610470408
614,2134,0.0974579389158751,0.0582187737557226,0.95559810943825,-0.168596409628092,-0.0286934688906513,0.00917863646770285,0.00047788045890161,-0.0869233870782237,-0.0033937537122675
615,2135,0.0956835857345941,0.057884410940097,0.955842400220258,-0.170963181621617,-0.0297131983300141,0.0101104624942502,-0.0169593690988673,-0.137164821660305,-0.0331864403589152
616,2136,0.0939128771809597,0.0575155468897361,0.956076955715092,-0.172691953635175,-0.0323615474381086,0.0107616482184616,0.0252711234571276,-0.080103574172096,-0.0530477521901675
617,2137,0.0921455662329135,0.057115783463093,0.956299473498271,-0.173671168021969,-0.0341394589808526,0.010877039004694,-0.023039778633197,-0.0995142408724783,-0.0635277854524017
618,2138,0.0903889372352078,0.0566747812565362,0.956506369223784,-0.174306825201979,-0.0375979370994532,0.0104396534050134,-0.018862188552025,-0.12247985033196,-0.100089369890795
619,2139,0.0886339465141628,0.0561801674626856,0.956703648276872,-0.175709828560571,-0.0411786374672696,0.010408857181744,-0.00597002464842942,-0.136711441210307,-0.100608426299119
620,2140,0.0868832963638542,0.0556070790479395,0.956892078186788,-0.176390223806313,-0.0467147393680656,0.00988496749981073,0.00481403687080881,-0.156836461172148,-0.131758870930676
621,2141,0.0851249645451299,0.0549555097426215,0.957075053518236,-0.178329843277697,-0.0540211710376302,0.0100743173577243,-0.0309293506661202,-0.206781269832701,-0.0954689360158817
622,2142,0.0833651235860008,0.0542436964110539,0.95725318448909,-0.179199725042985,-0.0605603644767854,0.01061824323915,0.0167740162207564,-0.160943345860433,-0.0563427201483552
623,2143,0.0816127166323147,0.0534903478281091,0.957428268339114,-0.180240034435176,-0.0666347790691985,0.0114806402902225,-0.012902842915412,-0.205230445460687,-0.0177318270051003
624,2144,0.0798962279162476,0.0526970044253737,0.957597874725708,-0.180315389242077,-0.0720185845946758,0.0125247006099838,-0.0343880954917309,-0.188226139395449,0.0264776132862804
625,2145,0.0784257823151501,0.0519096044522344,0.957751284533162,-0.174829619139827,-0.0763559106884046,0.0126936405147988,-0.0509085262471892,-0.186535204495522,0.0368494055030586
626,2146,0.0773136752331317,0.0511169087638716,0.957890905567709,-0.165796686221056,-0.0791248797394758,0.0134365234060954,-0.0191536095428137,-0.183576047380382,0.0554301928951294
627,2147,0.0765496541601074,0.0503687563940542,0.958019431783438,-0.152591627102605,-0.0800816396412132,0.0135896825473069,-0.0641850861444627,-0.136789754649947,0.0654043255043556
628,2148,0.0761482816840098,0.0496713966373028,0.958140952118367,-0.136402279604818,-0.0797276911428032,0.0136710766756046,-0.0926016669573685,-0.0849021559802196,0.0773951822775083
629,2149,0.0744561932584747,0.0487235633268146,0.958257863407478,-0.138763395984685,-0.0815183008216156,0.0138307747644909,-0.0993714394512367,-0.103247726421307,0.0831649720646976
630,2150,0.0734507597378253,0.0478915400520677,0.958368160701033,-0.13420758978167,-0.0834770505695688,0.014112279264439,-0.117544820942775,-0.119742353089831,0.119459186175774
631,2151,0.0719966663583452,0.0469379218256741,0.958471343697312,-0.135430967926506,-0.0859786040555197,0.0138440398833657,-0.116988063470355,-0.171423527332908,0.0728079642774767
632,2152,0.0707119999416033,0.0459959044445893,0.95856938139595,-0.136769896366134,-0.0893839365495765,0.0142453228713885,-0.160829971526077,-0.113840392125964,0.0960084883226655
633,2153,0.0692746809872044,0.0450124328406588,0.958660622565074,-0.138575274157694,-0.0926881720661734,0.0140266874227324,-0.165943494312094,-0.172968846764841,0.0819272971137227
634,2154,0.0678668320597506,0.0440357464396015,0.958748681269839,-0.140534308335614,-0.0955398327816064,0.014089050601964,-0.132789742598168,-0.175963798383125,0.0840810452010155
635,2155,0.0664296298893041,0.043050469005654,0.958835522364986,-0.141687484448895,-0.098661454801892,0.0139985583898988,-0.0890180953259756,-0.161896284674613,0.0754365002978979
636,2156,0.0650186966135118,0.042072804712644,0.95892526933002,-0.14194127300151,-0.1004689883473,0.0144442750730696,-0.0572668054289185,-0.148022069703095,0.112450729291368
637,2157,0.0636323036531738,0.0411037209952058,0.959016335689095,-0.141198456931153,-0.10150694093918,0.0144134137358974,-0.110349477673898,-0.144518899774344,0.101189921339683
638,2158,0.06226191520196,0.0401536703134102,0.959109836070351,-0.140696364592921,-0.102025034327108,0.0145792040851671,-0.0731952743207939,-0.117610365066189,0.0892987769141103
639,2159,0.0606740244232635,0.0391703261851889,0.959261021832151,-0.143555361703908,-0.101745847207981,0.0148641869816136,-0.111985354471205,-0.0780972220360595,0.086591170683157
640,2160,0.0593978533712013,0.03830589807317,0.959436762367288,-0.141524663158804,-0.0999380023123822,0.0151892481906194,-0.124135474561298,-0.134569128588943,0.0878345959571655
641,2161,0.0582044077235319,0.0374856458468069,0.95961050140039,-0.138057243255288,-0.0972422796760838,0.0156239122619398,-0.0642486180714685,-0.127782420950115,0.066522125343514
642,2162,0.0569165681620411,0.0366384161340516,0.95977865720549,-0.136590621402446,-0.0953486036909958,0.0154942394292307,-0.0796730233246165,-0.161916444424764,0.0209724093323355
643,2163,0.0559741584029193,0.0358843745207162,0.959937576996441,-0.130989336541295,-0.0929926635777935,0.01511616773682,-0.0788650107416293,-0.106820755209036,-0.00448528656840274
644,2164,0.0554321827261112,0.035242799138732,0.960088024448553,-0.119307048375982,-0.088986939685593,0.0140644016374877,-0.0749281228129312,-0.116493342953987,-0.0507271141514781
645,2165,0.0541520164022293,0.0343185031480452,0.960232453164388,-0.120623109838014,-0.0897417304963435,0.0136433984267373,-0.0587579281347542,-0.069954452614476,-0.0422334770480204
646,2166,0.0532945250702944,0.0334980742838756,0.960359607114205,-0.117168256205595,-0.09018148325246,0.0122169604009537,-0.0957201019317549,-0.0838277535377511,-0.0986265849658129
647,2167,0.0521503471071691,0.0325253856036405,0.960481301620783,-0.11768942281866,-0.0922136740643509,0.0114787756408649,-0.00168627195602753,-0.103009844385518,-0.0844778107237389
648,2168,0.0510815752017773,0.0315500315132937,0.960593142019678,-0.117221034359999,-0.0944757754756794,0.0103681262083833,-0.0610007285300457,-0.0847351177641985,-0.0970606635711246
649,2169,0.0499561157966002,0.0304979274940402,0.960699572600335,-0.118127355495047,-0.0974331373572771,0.0096088932911037,-0.0516352927538114,-0.115865308085606,-0.0901478915787244
650,2170,0.0488731880304132,0.0293741143569957,0.960805604680336,-0.117921635835816,-0.102484640522878,0.00907479336259162,-0.0562286976698661,-0.102212089789278,-0.0678686836624058
651,2171,0.0477875714309306,0.0281619286458485,0.960912406199754,-0.11779614914912,-0.107442631698661,0.0084538247680629,-0.116053069082761,-0.109676070587479,-0.0764923852914081
652,2172,0.0469513768258038,0.0269866333800058,0.961043095884727,-0.114190658768855,-0.111771140112618,0.00843075470837039,-0.109923842728826,-0.0559461267996636,-0.0891602772824043
653,2173,0.0464599716952981,0.0259490578102965,0.961167157634109,-0.105784479902464,-0.11338652780084,0.00760287076989657,-0.135903277163212,-0.0902733210211555,-0.105367050496557
654,2174,0.0452276584380992,0.024554443673772,0.961282135578869,-0.108445367681572,-0.119067592294935,0.00710896433375243,-0.0602806544239653,-0.0906225753075586,-0.0936579668619921
655,2175,0.0443886521465458,0.0232916191833322,0.961383869496875,-0.106876637539281,-0.122579864390879,0.0066405450873314,-0.0461907951649345,-0.0740441456035161,-0.0992668136741151
656,2176,0.0433020633206622,0.0218916937622567,0.961463579412626,-0.106613445895111,-0.127311646432902,0.00475224871797984,-0.0307359696957601,-0.0699940456454666,-0.168915307024101
657,2177,0.0423111651574586,0.020539315024838,0.961531905987873,-0.106048466970412,-0.129933800413951,0.004247859750389,0.00328305101729113,-0.0296404957742197,-0.102682936833629
