,Frame,CoM pos x,CoM pos y,CoM pos z,CoM vel x,CoM vel y,CoM vel z,CoM acc x,CoM acc y,CoM acc z
0,102,0.723100824915461,-2.11355567870616,0.974154724635337,0.00188352202741425,0.0445094397316728,-0.0157210354055992,0.117975983825991,0.160184047184703,0.000560153728590223
1,103,0.723096551513922,-2.11306576087277,0.973945401689317,0.00208221215937118,0.0485987184728833,-0.0151079477971047,0.07973859638767,0.163560340396865,0.0258556617286443
2,104,0.72309319708022,-2.11251930901485,0.973760333227369,0.00342375065996209,0.0518369257708528,-0.014079047630881,0.0990696282016125,0.0954560671262801,0.0926834890226425
3,105,0.723121540058878,-2.1119113864881,0.97357811328413,0.00621221450495816,0.0568428725845619,-0.0130135375632792,0.0654528227947286,0.0707685955818186,0.1311069808923
4,106,0.723165885997797,-2.11124207597304,0.973407398875753,0.00799541904566212,0.0611064951418885,-0.0105559839405145,0.119350906863339,-0.0476214901942445,0.244532347063604
5,107,0.723249425445249,-2.11051623443023,0.973241275568532,0.0109538357117662,0.0654949544828692,-0.00845089385401005,0.13268781207415,-0.0943409734637491,0.27124697138343
6,108,0.723375356209917,-2.10971940865922,0.97315264701025,0.0132965830880294,0.0697842293570555,-0.00552341543666489,0.0446128370826607,-0.146759372734443,0.339884796401566
7,109,0.723566374804912,-2.10882040833844,0.973084922295161,0.0182051636127606,0.0762835494750183,-0.00256539456292362,0.128573345969122,-0.257072191481713,0.393873984364591
8,110,0.723895654484872,-2.10782922101596,0.973037698048703,0.0259276632311361,0.0829684233122641,-0.000261344491753878,0.250216124037453,-0.430999996923243,0.392347730750472
9,111,0.724463319196907,-2.10676515885804,0.973025000604639,0.0353887472293792,0.0882428548175799,0.00228119379906424,0.17165135483915,-0.662558881983456,0.437956433314759
10,112,0.725182631336896,-2.10566278734645,0.973076551822875,0.0423225176695054,0.0923621530853941,0.00805897507608013,-0.126082809272181,-0.441119380406149,0.651865473687825
11,113,0.72597036164872,-2.10449030573668,0.97321533858407,0.0501122385384551,0.096409176249675,0.0155964546702647,-0.16100130787583,-0.431483943050674,0.820393187213793
12,114,0.726761867577039,-2.10327183317544,0.973455129405507,0.0552797395785654,0.0996246108262759,0.0245966671663071,-0.0415440756242425,-0.396143411642755,0.888395037023038
13,115,0.727549371240733,-2.10197937154766,0.973840834109311,0.0569095399536649,0.105166256949296,0.0348549814088957,-0.166874144222696,-0.259491266909419,1.00530665041677
14,116,0.728336575874773,-2.10049086508761,0.974400514052562,0.05608717621456,0.115741782272695,0.0457331235917097,-0.304745374568286,-0.130759776882033,1.01745999389713
15,117,0.72910220527293,-2.09874322399877,0.975141010221075,0.0513102717537249,0.125761551525729,0.0562357754371893,-0.379665247487126,0.120779583487588,0.86019507950484
16,118,0.729913014320428,-2.0968635766607,0.976120841678277,0.0487332140004481,0.147301820362616,0.0671951446012144,-0.251472854255,0.601721999042497,0.808964948158629
17,119,0.730710301880751,-2.09477533791176,0.977268835396105,0.046648417619325,0.173109922222876,0.0743864158122074,-0.398079028940608,0.673014638551234,0.439787655839655
18,120,0.731435571906269,-2.0925980179679,0.9785395305028,0.047407316071899,0.193437109987118,0.0781049094287291,-0.260434158928719,0.772260272218822,0.0679031209382917
19,121,0.732057275851855,-2.09057637326344,0.979916998934717,0.0476472811296777,0.203235205116469,0.0807668153339707,-0.171442281404605,0.774873219979427,-0.133880113919219
20,122,0.732514581695447,-2.08895730371918,0.980921533618139,0.0473749968006778,0.196318411311895,0.0797049465346085,0.0465527731656966,0.731657523813617,-0.552023427519513
21,123,0.732829289508375,-2.0879319776049,0.981890308385243,0.0439345032178005,0.173891113297262,0.0754625466641554,-0.00549400704068466,0.603901654352065,-0.940474522261682
22,124,0.733012572955516,-2.0879214150359,0.982761335441398,0.0387643243765565,0.138054767853718,0.0678202367897897,-0.0368490169736303,0.405244385312125,-1.1266406805471
23,125,0.733188891718839,-2.08837850129407,0.983175628424973,0.0340171796038541,0.0899995550092906,0.0567676043692316,-0.127205577242401,0.127144875577535,-1.33809996103475
24,126,0.733412574152133,-2.08919717434094,0.983151369993575,0.0351053062792505,0.0391255339135415,0.0407436719098353,0.174089394376769,-0.175825034289992,-1.33278150584833
25,127,0.733743486678068,-2.09013606387246,0.982719778743615,0.0426713616263413,-0.00101468897101437,0.0193232862294369,0.297562135989962,-0.361800637667342,-1.28173439362853
26,128,0.734179112570414,-2.09109466659087,0.982054698906526,0.0532938968459664,-0.0319943952262691,0.00167691993537354,0.554604943822852,-0.430953362394539,-0.886410715115189
27,129,0.73472970360528,-2.09192855086393,0.981284520258247,0.0640256929812889,-0.0539520145499894,-0.0125971429945219,0.543523155408176,-0.508381853387543,-0.66139866369352
28,130,0.735339124559988,-2.09260941894251,0.980484405830043,0.0721893127734501,-0.0697009591511901,-0.0211805078777187,0.733742302079207,-0.642063857070011,-0.310731897490326
29,131,0.735926955163489,-2.09317123978051,0.979718871831211,0.0734596991256877,-0.0802114118916495,-0.0241614606056183,0.724663803342658,-0.51997788019899,-0.0256718282950165
30,132,0.73639998944377,-2.09366654813819,0.979028640489322,0.0666743417949111,-0.0879805555575224,-0.0233939772721025,0.743274570706286,-0.344942911395334,0.0796514492608294
31,133,0.736687072848549,-2.09411647611693,0.978416976227183,0.0541252196326045,-0.0931980396813249,-0.0221495737959973,0.724376378354388,-0.253034034195069,-0.0112566979525256
32,134,0.736779718221723,-2.09450585982904,0.977855241599453,0.0407485074683895,-0.0929455726554266,-0.0233652008829591,0.609878618598278,-0.152748705839194,-0.207307800633455
33,135,0.736664202518605,-2.09479722483708,0.977324317792959,0.0278740371596826,-0.0867517380369301,-0.0251246359608964,0.556983873698606,-0.0549899619014908,-0.237358730101507
34,136,0.736419491603806,-2.09497614722135,0.976796307309821,0.0188295524376525,-0.07734272874029,-0.0314576237667333,0.351136525603583,-0.0140271987636729,-0.545820461546469
35,137,0.736094927049386,-2.09507218691766,0.976244393699063,0.0127842376509087,-0.0667267965547163,-0.0406457689601755,0.477857124029211,-0.169225057347049,-0.789659068501315
36,138,0.735795453419349,-2.0951644609932,0.975645145520442,0.0113198653143881,-0.0588472255620814,-0.0521860442356172,0.418242835721867,-0.209484356921053,-0.9451855168402
37,139,0.735579858247311,-2.09529706439815,0.974990654982029,0.0129450055911749,-0.0527622292190746,-0.0668037304548574,0.363474331845723,-0.248054605314048,-1.2395067024892
38,140,0.735499239745725,-2.09549252174131,0.97426140560805,0.0187469443437272,-0.0501333127197861,-0.0843694433529353,0.281469891224651,-0.433677363251268,-1.512501505782
39,141,0.735505472900643,-2.09589262878906,0.973590737435542,0.0270659535586185,-0.0481788886164644,-0.101739791494442,0.183673657102986,-0.310619024215,-1.48081187181825
40,142,0.735669235984176,-2.09628117231866,0.972919865057199,0.0324863548204331,-0.0546505632327238,-0.111556707839532,-0.403609190491629,-0.807425132184281,-1.17095069708539
41,143,0.735917291051489,-2.09681153164992,0.972291379102451,0.0394603434491719,-0.0675519263347645,-0.116764124955936,-0.152375003546731,-0.899966782296678,-1.08158797301239
42,144,0.736228021865118,-2.09755274815006,0.971672912660676,0.0442808778098906,-0.0898986482766528,-0.115799841533402,-0.0949203013918952,-1.42079731306796,-0.467360227431863
43,145,0.736577956866358,-2.09860484259245,0.971147980827182,0.0442131775444194,-0.11811331433718,-0.100345821807686,0.112838339220326,-1.5824823284424,0.892754535887592
44,146,0.737044669390321,-2.09990410275247,0.970789800483483,0.0453129745596521,-0.137951993865798,-0.0786734122576804,0.0593275688599295,-1.07545311718549,1.58982409941489
45,147,0.737717459586439,-2.10121917405172,0.97059970646765,0.0493376562322561,-0.141467818755524,-0.0561950394655678,-0.276024026542757,-0.872163836650992,1.74658303519489
46,148,0.738637504582095,-2.10242821477245,0.970532528442394,0.0544153768637714,-0.130599593889944,-0.0416383177313488,-1.09462974326163,-0.89106944010176,1.3671640414654
47,149,0.739630686162689,-2.10343316061899,0.970553075342629,0.0615433537772041,-0.118348691101769,-0.0266924624668614,-0.953565644306592,-1.57335714484525,1.58155811084961
48,150,0.740743863073334,-2.1045251516619,0.970418010401221,0.0603693652662638,-0.103956606359214,-0.00622933528277723,-0.919052076715629,-1.45719068735544,1.88871058964479
49,151,0.741251321479869,-2.10532622261279,0.971491044897114,0.0443209346846061,-0.0843586610383085,0.0266099125177346,-0.153593388783294,-0.889291995587869,2.71502029232018
50,152,0.741960110178232,-2.10614784936298,0.972063189679991,0.0411690196811754,-0.0909172948891447,0.0586888541264986,-0.499835992915835,-0.496673168144194,3.08153462967294
51,153,0.742289804637063,-2.10692290528481,0.972932054296963,0.00742225682433119,-0.079988771813234,0.103535066713475,0.271673334980617,-0.10739624435736,3.33258391589071
52,154,0.741850199868011,-2.10706441763334,0.973555035080367,-0.0347279682399938,-0.0601967257273949,0.123698739311546,-0.404067102629983,0.501499353347873,2.42439350273942
53,155,0.741476848521468,-2.10798582959286,0.974661494360135,-0.0529229597052786,-0.0577234972233444,0.131825687575905,-0.518104065447821,-0.236108067051976,1.41530252180246
54,156,0.740463739703066,-2.10755987961726,0.975768528553172,-0.058307697232363,-0.0471269447621796,0.127473380733234,-0.213217274579668,-1.00222684247232,0.449202569737967
55,157,0.740046045740115,-2.10797638878101,0.976769824724827,-0.0475994118413306,-0.0503091062069706,0.114967488901354,0.0635994551304429,-1.32435414719436,-0.30956995618088
56,158,0.739709044147864,-2.10829061195353,0.977624574438029,-0.032550815651683,-0.0579829930475548,0.0984109278176259,0.374706976689631,-1.29567486973495,-0.815099255358294
57,159,0.739670494731922,-2.10878693824256,0.978268750262654,-0.0146479854405555,-0.0669388402766524,0.0784114641510645,0.649113182523176,-0.895224656111082,-1.1590399572795
58,160,0.739856484852192,-2.10936523374106,0.97863531535811,0.0019389264901203,-0.072332129114822,0.0539837308728168,0.61279131388871,-0.52129178523776,-1.55347740330634
59,161,0.740250772307765,-2.10993949085666,0.977510810181004,0.0128244326665617,-0.0721628432771043,0.0222885374456454,0.295475803800716,-0.35315759631308,-1.89292879978768
60,162,0.740651488512491,-2.11041225973629,0.976482971969703,0.0139645256503287,-0.0663375404297701,-0.00490394663475497,0.192808175764842,-0.0999904809860693,-1.87230305490997
61,163,0.740597701241707,-2.11044644775951,0.975719977292377,0.00293312196231003,-0.0493211674700039,-0.0219781760485487,0.161722103614523,0.494370213337656,-1.38693258875545
62,164,0.73982966742187,-2.10976346647718,0.975009868042433,-0.0142587453483749,-0.0178795029705908,-0.0344285210192859,-0.0597015923839558,0.938556534027659,-1.07762732781478
63,165,0.738376535525579,-2.10840507428658,0.974209243470282,-0.0390692459633466,0.0232939736346799,-0.0465462608460324,-0.406751390790681,1.36737816400146,-1.09015840018895
64,166,0.736710319268851,-2.10691168154126,0.973443025784046,-0.063839854686519,0.063097720970755,-0.0535365841829195,-0.412877522560425,1.65718189176935,-0.714430845685999
65,167,0.735100819535885,-2.10537488985682,0.972815463323269,-0.0823851260709166,0.0970019095206178,-0.0568001630600836,-0.444368263353091,1.73776282262639,-0.426637984356592
66,168,0.733806720178174,-2.10381311979945,0.972226460844055,-0.0896479255112959,0.123127446726289,-0.0621550324332431,-0.418484608919949,1.38136008639055,-0.50235314799577
67,169,0.732864738561001,-2.10237585053545,0.971632430277758,-0.0929121307211528,0.135859474222601,-0.0599943248344428,-0.274068217658198,1.35586734462824,-0.014685316743627
68,170,0.73220790749795,-2.10117838765273,0.971199938732276,-0.0985818272145685,0.131646802491565,-0.0480992759356757,0.0191105182516079,1.54568395885725,0.441198896467977
69,171,0.731750898717012,-2.10038246420732,0.970880745904527,-0.107469879697545,0.11561526296124,-0.0315998347949361,0.162792121916273,1.69961906391043,0.586757351142606
70,172,0.731356219455667,-2.09998933833997,0.970813154508454,-0.117512955924895,0.0968303240760664,-0.0163613597203446,0.142750190569095,1.71400553916662,0.366052295969397
71,173,0.7311329964779,-2.09999326548542,0.970831316007325,-0.118474382234192,0.0821707063904301,-0.0081599005072617,0.10342571578757,1.38897074793972,0.0160810048176886
72,174,0.730962307595493,-2.10022032262547,0.970908732103361,-0.11015755780652,0.0746033426162032,-0.00851506211737886,-0.152703780440695,1.09021426646937,-0.420515658656058
73,175,0.730943340034969,-2.10065895738049,0.970987398402714,-0.0949801109837283,0.0652655150921864,-0.0116664706047806,-0.201655445703003,0.915354569152551,-0.535444098941779
74,176,0.731019033749502,-2.10122460216531,0.97104716165412,-0.0783470438555456,0.0572568544515359,-0.0150592037520939,-0.215628739092901,0.922877124708869,-0.496428558904045
75,177,0.731135419539404,-2.10185065179323,0.971063396506807,-0.0637172666593479,0.0487820407665173,-0.0166508984428578,-0.0483875016062337,0.89106477783806,-0.367566452480953
76,178,0.731322400565018,-2.10257357037454,0.971032676038462,-0.0492031487999949,0.0393636031419512,-0.0189497710437003,0.048023118208537,0.763490103133997,-0.39517484164297
77,179,0.731512603272726,-2.10329415040773,0.971080516647277,-0.0361777785581923,0.0326692706036384,-0.0218919017771465,0.179264319968371,0.535010074098982,-0.495867179723542
78,180,0.731764357054365,-2.10407495567404,0.971092960203279,-0.0237093883290044,0.0250717748589751,-0.0258272073515037,0.251564038804805,0.404689207798395,-0.596637173013631
79,181,0.732029956687527,-2.10486162900359,0.971070065858807,-0.0141774163629898,0.0181036014606838,-0.0302002032961702,0.237654603987876,0.329797285622036,-0.663481082954354
80,182,0.732300263753912,-2.10566019443,0.971005673228406,-0.00695106210484223,0.0115399702378996,-0.0348896025661415,0.236936087174067,0.380764438927164,-0.723601441406974
81,183,0.732546969372141,-2.10642055182176,0.970893123136621,-0.00280764709677264,0.00668144956448345,-0.039768720187655,0.145897017964705,0.440072421139197,-0.740687202188267
82,184,0.732746621472169,-2.10709608627776,0.970727273111907,-0.0012512329913391,0.00656803436061045,-0.0450939307642662,-0.020107831013137,0.532397835367563,-0.748627088695492
83,185,0.732872782363707,-2.10766075516856,0.970509151973908,-0.00179393204872503,0.00832146943426751,-0.0502726734166682,-0.192368611318311,0.622345204106862,-0.718810692741312
84,186,0.732899106898368,-2.10811653603391,0.970250178159135,-0.00530877897939695,0.0110898197604717,-0.0545250921074275,-0.287923589835161,0.700738182686806,-0.658612559611263
85,187,0.732852758901689,-2.10845762696581,0.969948215987356,-0.00924283501070865,0.0128925901695221,-0.0589343092737432,-0.320710371604649,0.703416834988579,-0.653886398763664
86,188,0.732690494970265,-2.10875102408894,0.969617561282715,-0.0155475892962022,0.0139450601088876,-0.0624764933108997,-0.337735390332576,0.714953056974378,-0.60807614784221
87,189,0.732460527673491,-2.10898951016509,0.969257448784587,-0.0214208924979043,0.014364808372384,-0.065707663801491,-0.316870323725823,0.801236555241197,-0.566191691563683
88,190,0.732209860035635,-2.10916661741438,0.968871944503596,-0.0249164986977155,0.0158016587033808,-0.0686738793990065,-0.262087654155784,0.800027641569084,-0.5184353807235
89,191,0.731980887993196,-2.10929881057477,0.968403930602233,-0.0261549518440827,0.0170424300920172,-0.0703082858250881,-0.130054688919872,0.748847246675317,-0.32041195106252
90,192,0.731840395535005,-2.10939167074194,0.967956423908076,-0.0246023902154411,0.0188111303771173,-0.0669502526092626,-0.332897731567504,0.554663485624727,0.152132346597106
91,193,0.731820741864961,-2.10945275551032,0.967676569889634,-0.0278196480880768,0.0224110406692,-0.061836613776909,-1.23343930012683,0.779692691645303,0.134132844210141
92,194,0.73191475964051,-2.10955486478585,0.967606254899305,-0.0309866380318187,0.0135417114749186,-0.0528909030145802,-0.926959796361262,-0.107623144453073,0.337216525372384
93,195,0.732081219831897,-2.1098267715194,0.967458831655973,-0.0294261827571569,0.00279221314911684,-0.0352594122555755,-0.534697051261319,0.0867945149589633,1.4563243891394
94,196,0.732453108167293,-2.11018332065353,0.967503040453967,-0.0164631299945803,-0.00152166629818841,-0.0132588673037759,-0.598618541657513,-0.0205175143473276,2.07093124009809
95,197,0.733205330642864,-2.11057993164293,0.967747232593016,0.00998196781224701,-0.0062614697185683,0.0110519080246799,-0.616144953549703,-0.426876106103869,2.41232082747384
96,198,0.734303662884802,-2.11095341609828,0.968134275736043,0.0395256956575055,-0.0132775359330774,0.0367886590654564,-0.489532307895098,-0.764838978680552,2.619582210814
97,199,0.735707175737459,-2.11128302761565,0.968630212955004,0.0657133170825907,-0.0280794962072119,0.0578054685761199,-0.263399645366601,-1.2175203758327,2.32866985172052
98,200,0.737231588435641,-2.11156018270973,0.969184431620278,0.0824316228307532,-0.0437999802938199,0.08074063306991,-0.430518466930932,-1.09276466808348,2.80330299927622
99,201,0.73882765069339,-2.11174534744369,0.969841241664851,0.0901772319331768,-0.0590044149176409,0.107930115525423,-0.765321300486552,-0.865762873679287,3.28819933561666
100,202,0.73933066445278,-2.11209458064102,0.97152922226394,0.0834338450597326,-0.0662806845603485,0.143947553691064,0.0551055127031356,-0.915236361868871,3.27504048609016
101,203,0.741144553051056,-2.11319196262464,0.973556066994711,0.0958741813266338,-0.0793307647265697,0.17152655141066,0.682750919594191,-1.23539315422648,2.75105558553754
102,204,0.741616980352402,-2.11238560067139,0.975140584088134,0.10057436049206,-0.0557515597688341,0.182841042990372,0.630465073583037,-1.29468008420528,1.76756843980212
103,205,0.742909740549962,-2.11213198867931,0.976425824588532,0.108772283640249,-0.026611165796568,0.182087663040531,-0.00299972473301492,-0.957162062157062,0.976280499442895
104,206,0.743916436522923,-2.11141734528759,0.977457203879042,0.109346895102047,0.00760228255140084,0.172031763302106,-0.367232334164991,-0.382808373463486,0.175924233001633
105,207,0.745130250689593,-2.11064258056874,0.978533799959801,0.0995849804732722,0.0340770007187984,0.158206349460893,-0.702821390920408,0.00809386529210068,-0.40468982697681
106,208,0.745955520068776,-2.10962515081599,0.979699796891831,0.0897748483544572,0.0678183530261501,0.144195252499107,-0.4917772015706,0.741268532697679,-0.724349051102404
107,209,0.746651487906872,-2.10858387535707,0.980953269414988,0.0770948362885027,0.0938180895167604,0.126921134941642,-0.563903160239687,0.800640019757568,-1.2095616516493
108,210,0.747015548614803,-2.10742800358317,0.982263529979816,0.0607854392825698,0.109600534209298,0.107583658513198,-0.443705698482135,1.03170022262624,-1.72466563999376
109,211,0.746841828975744,-2.10608494848732,0.983518629520433,0.0432299502871555,0.105941537622522,0.086808707831134,-0.293041558758157,0.69531922602091,-2.10411663592378
110,212,0.746741617214665,-2.10509956886537,0.984284930262852,0.0266202263499144,0.114623989922221,0.0632954742985038,-0.995850737976299,0.991809659837076,-2.52765479174909
111,213,0.746262699217698,-2.10445696397303,0.985016902543495,0.000737471025463114,0.0891606419952212,0.05270863213516,-0.45090879045833,0.669303455665883,-2.48592056746458
112,214,0.745563363632815,-2.10413019159629,0.985543989162893,-0.0232804918886121,0.0614641138191027,0.0426509244925053,-0.0539810932528722,0.617939084686002,-2.49217758831406
113,215,0.745005831528956,-2.10391988704902,0.985667959889261,-0.0340057539002422,0.0350253549490354,0.0309665614300584,0.178670009471169,0.633568974540479,-2.10591917978512
114,216,0.744809058606329,-2.10384632046447,0.985210166605496,-0.0233254862107878,0.0152143607439504,0.0157307734439072,0.841922725676369,0.105758582822342,-1.57634948725961
115,217,0.745009833367982,-2.10343963193311,0.984452191359533,-0.00140655780452944,0.00454714189219844,-0.0046974534228412,0.121792365186036,-0.187859645701953,-1.19222073786187
116,218,0.745964901817913,-2.10273536230251,0.983764682635494,0.0377443466972383,0.00188422264185826,-0.0180219316677304,0.888695078862984,-0.107221075170436,-0.0773596798115561
117,219,0.74650920116728,-2.10216978832789,0.982876658285255,0.0567533915118848,0.00330671726690209,-0.0208116263762978,1.33601862293616,-0.999581095137686,0.147568946835345
118,220,0.747165843089592,-2.10166991034733,0.982030648564081,0.0847837985622161,0.00495212160525674,-0.0197590955213645,1.1939879568363,-0.57885632025944,0.473123638352732
119,221,0.747614135875602,-2.10125667792014,0.981257495142931,0.084735945994607,-0.00107422502834866,-0.0116065569335122,1.91308300355937,-0.856378665526623,0.90914703055762
120,222,0.747668994420501,-2.1009988852071,0.980565543444412,0.0646449005002282,-0.0100444724728152,-0.00796161800213579,1.71595168918202,-0.890898371853549,0.682773468030785
121,223,0.747327684335438,-2.10087516077754,0.979925623455477,0.0370012190957305,-0.0156860687872399,-0.0123606011460996,1.12914885787779,-1.00380262697276,0.123092335001856
122,224,0.746636927825895,-2.10090084280802,0.979319332726813,0.0075805601241944,-0.0224994218024921,-0.0198582346131818,1.02421437246245,-0.839881278134472,-0.350989486248465
123,225,0.745639097951285,-2.10102518694222,0.978750400288376,-0.0228111606887748,-0.0272466813505421,-0.0266401902700522,1.01172411601843,-0.497140002318283,-0.539075481495688
124,226,0.744464117586059,-2.10118579524457,0.978202325041349,-0.0446122001010972,-0.0294105560267236,-0.0370467786020174,0.708542678313183,-0.21336519765651,-0.884210762733496
125,227,0.743270559491568,-2.10131540719103,0.977628658169197,-0.0541652002600023,-0.025114854767389,-0.0529107421780853,0.305784720811214,-0.230871014026804,-1.25565556226223
126,228,0.742122589985037,-2.10144694666121,0.977001999330294,-0.0570008706200766,-0.019443617703451,-0.0701720328851862,0.120369482601225,-0.299303115383665,-1.42235690509975
127,229,0.741044985438397,-2.10163416158221,0.976336569872558,-0.0565137775253136,-0.0162348762588805,-0.0869295342615372,0.0844298636602484,-0.228673864159712,-1.50972928580179
128,230,0.74010160988931,-2.10190265651785,0.975626645547039,-0.0534798952077869,-0.0162032451032867,-0.102623098552526,0.13598925061654,-0.196623719066642,-1.52968624214578
129,231,0.739325760783517,-2.1022687376919,0.974872666817784,-0.0470304745276081,-0.018728998569559,-0.117820576727958,0.0434384265965289,-0.177084849520712,-1.55306055231814
130,232,0.738732208007094,-2.10280310840078,0.974095381541192,-0.0401023589118334,-0.0265883383597264,-0.128682891140516,-0.174511772563404,-0.281075079395119,-1.2783824816554
131,233,0.73832841138987,-2.10350803597591,0.97335338080056,-0.0328164833389067,-0.0393037749351281,-0.135702845675653,-0.312144001258375,-0.428399041769751,-1.05458646113673
132,234,0.738055130158219,-2.10435336488623,0.972632549517605,-0.023774242044267,-0.0566112264924421,-0.140112359157115,-0.44582619290864,-0.80544742773095,-0.844868167304141
133,235,0.737858702563069,-2.10536998106551,0.971959384013409,-0.0150940421551759,-0.081454755387978,-0.135368280052478,-0.333776887135993,-1.35039326923314,-0.0368682908841459
134,236,0.737770290354018,-2.10667708503899,0.9714131352466,-0.00776631560220087,-0.11245083012766,-0.114912713387912,0.0406116338170866,-1.66338083756916,1.47612065917455
135,237,0.737898214956051,-2.10818015206464,0.971076779364674,0.00272667003883807,-0.135494563001372,-0.0838449707677445,0.211480355375183,-1.24975544954901,2.44298557431172
136,238,0.738287196859581,-2.10961231145933,0.970948777073895,0.0114659373051395,-0.143435854955607,-0.0543791925731205,-0.689805864752351,-0.874145888835459,2.48281940942861
137,239,0.738859749408426,-2.11076945857395,0.970965426412063,0.0233568867415129,-0.144077064044092,-0.0297845262445646,-0.680925090182439,-1.69508829100741,2.3304115115616
138,240,0.739617888221738,-2.11174452162622,0.971106246774629,0.0331431683054324,-0.13910222340713,-0.00254726354452566,-0.568588219224035,-1.82094644578777,2.71525849292461
139,241,0.740360485780727,-2.11253785730972,0.971395547734677,0.036444801582347,-0.12271269651801,0.0277669236316138,-1.00798908032162,-1.17848827182935,3.13460953525881
140,242,0.740762858368441,-2.1131746985456,0.971896244997374,0.0287316882096816,-0.106538105188747,0.0666091492449172,-0.629111569776319,-1.10924182963794,3.9349221848436
141,243,0.740666600967454,-2.11380030000769,0.972717622986917,0.00502960444516046,-0.0900707054012713,0.11186116672969,-0.194942254452367,-0.868134800582628,4.31305059445507
142,244,0.74014954036812,-2.1140312926158,0.973261739207404,-0.030213152546286,-0.0566313341244108,0.140182627605218,-0.502623156770232,0.135462000999898,3.45662229010919
143,245,0.739313848528416,-2.11450786867847,0.974505811054242,-0.0653216535046352,-0.037074982572885,0.161364571374039,-0.803863099393322,0.186864296233891,2.29740685186762
144,246,0.737607760654873,-2.115204561281,0.975430949982625,-0.0815858511932892,-0.020731879693799,0.164205046979468,-0.457399038405539,-1.06714407805737,0.585056142644916
145,247,0.736639476131999,-2.1156356715776,0.976726470485688,-0.0913780681683532,-0.0330376504739444,0.159541026316694,-0.36754475203403,-0.727053350971277,0.2571566752018
146,248,0.735776435052302,-2.1164751963683,0.977790754479028,-0.0878829416913707,-0.0637779256855463,0.131481326299751,0.348459011136974,-1.49920656273376,-1.10782818761238
147,249,0.735128475593466,-2.11751136059582,0.978515047242004,-0.0748214267680406,-0.0930015439946213,0.0943800770089613,0.624356006919598,-1.24559328683543,-1.84081373038445
148,250,0.73459865975458,-2.11834466374731,0.978846358892388,-0.0592925081925064,-0.10161412487889,0.053109777644292,0.583674437812604,-0.783223156131857,-2.44817404367813
149,251,0.734204586056044,-2.11886257865526,0.978513037285578,-0.0473437725159531,-0.095451796680709,0.00715041849407898,0.370188212984241,-0.714123505319625,-2.92529132620239
150,252,0.734084016117833,-2.1192562871068,0.977690353740729,-0.0382113145310875,-0.0822589319616914,-0.0394452748812841,0.143243356860472,-0.605276909476813,-3.32544514213259
151,253,0.73428427405569,-2.11958635241046,0.976658776724103,-0.0267927909899034,-0.0645559855346028,-0.0788503053247809,0.263281236473186,-0.125986587237538,-3.15789335712228
152,254,0.734663036905187,-2.11977778407758,0.975295607587876,-0.0180217558108726,-0.0412640722022194,-0.107231190521747,0.226121340008501,0.625511188316188,-2.5647900578787
153,255,0.733488521786361,-2.11779517559411,0.973997680855457,-0.0396053429688258,0.0169139494181801,-0.131609594579084,-0.444959390500456,1.40638015047395,-2.62056197084877
154,256,0.73171666938954,-2.11555721041601,0.973026900188532,-0.0673027747717653,0.0700707728872064,-0.145304458303753,-0.727394898921796,1.6822180966675,-2.17222744740025
155,257,0.729555612511816,-2.1131455778734,0.972132062779538,-0.0902924477960931,0.117381439168898,-0.148837315665749,-0.41778478720583,1.79658034872835,-1.3311445554415
156,258,0.727524112873899,-2.11086419490018,0.971277541680025,-0.0991527895635552,0.151937138148181,-0.146588965814453,0.309644193639947,1.87997680695361,-0.768360623921828
157,259,0.725939420219267,-2.10875240564861,0.970572223350676,-0.098671600884749,0.178427282245203,-0.14017903528792,0.362670428793565,1.99182775988912,-0.264253785189519
158,260,0.724884514396853,-2.10687730165549,0.969889575971439,-0.0947698996963646,0.193705246712365,-0.126611835456823,0.204353912670758,2.16800684789137,0.419616099659405
159,261,0.724219683145413,-2.1053782269807,0.969394322570925,-0.0991116832122303,0.193466883432644,-0.100717716305267,0.614060302109877,2.35958426816041,1.13511292931296
160,262,0.723748212446047,-2.10435419883283,0.969208644830314,-0.112614019553371,0.179730751250649,-0.0694426797879015,0.864816764033047,2.27313079500142,1.29466302698259
161,263,0.723384613915393,-2.1038500676478,0.969276832055617,-0.128013206605048,0.157905218645719,-0.0456625089156446,0.496086115667889,1.9050527688046,0.653899198033084
162,264,0.723011597432392,-2.10371932931116,0.969599497699857,-0.136445196811084,0.141909592824475,-0.0316503137100465,0.0408222529275769,1.6185931092656,0.0535125939736718
163,265,0.722693320856614,-2.10390564485703,0.969969236324025,-0.132235412582835,0.128026549312303,-0.0248810137601769,-0.224224591138001,1.24879394566939,-0.206783049157482
164,266,0.722438997589205,-2.10428863617036,0.970304494816129,-0.11708676024887,0.114373957785255,-0.0214883016880638,-0.200396948480507,1.08379004951854,-0.220582387692085
165,267,0.722327172615681,-2.104827120021,0.970594947110972,-0.09433910469427,0.100743429680199,-0.0180985336008776,-0.0771102812526164,1.0321657746737,-0.0224786337612088
166,268,0.722408640939624,-2.10549432593181,0.970856305159085,-0.0717133021504485,0.0855211662245398,-0.0125525578549795,0.152207040762799,1.06750187848379,0.212748539528524
167,269,0.722571258298778,-2.10622953156932,0.971105945132612,-0.0500619651899111,0.0712405665094175,-0.00798236207812309,0.368940508924762,0.935215452912337,0.210823848502064
168,270,0.722847990800194,-2.10701070485902,0.971331089533431,-0.0305328420769597,0.0576696479005421,-0.00444420269591622,0.578747254555376,0.775661944319694,0.149695954716939
169,271,0.723235106939707,-2.10778299210045,0.971510470654155,-0.0122821709276519,0.04711537586254,-0.00333662430932529,0.588680694448607,0.645549526232363,0.00569808532806248
170,272,0.723693271694169,-2.10847005617119,0.971621462306971,0.00220555143107651,0.0411035918206432,-0.00483206840173581,0.484935838230167,0.441519894112818,-0.176199758248284
171,273,0.72421731343181,-2.10904564442706,0.971642476176997,0.0131947827690026,0.0374577577549214,-0.00888508378861473,0.189637404540542,0.439187807509579,-0.329336607277966
172,274,0.724755219134723,-2.10945641625819,0.971561285820583,0.0199399141200647,0.0358213646045321,-0.0151907736636416,0.00255266218881807,0.354349892457354,-0.488305816215024
173,275,0.725295923122521,-2.10966124448633,0.97136808196961,0.024314522432944,0.0385646658854702,-0.0221531693631592,-0.101669537207722,0.418915078236286,-0.501991779406181
174,276,0.725801809643723,-2.10966463785945,0.971075806181573,0.0265702622662623,0.0438687748661753,-0.0285422411876996,-0.136493868492472,0.570796653695211,-0.454628123365019
175,277,0.726242049695633,-2.10943222458543,0.970694089278098,0.0278302726721516,0.0522341138267004,-0.0352346823097385,-0.0664479562393177,0.705184234432922,-0.467130235911704
176,278,0.726631994752499,-2.10897144853105,0.970246199948002,0.0297128706475892,0.0610718138994909,-0.0395157164491774,0.0345670375961316,0.6179065152142,-0.232339799659205
177,279,0.726944448167739,-2.10824969375672,0.969670173951884,0.0279374599510664,0.0720215411744049,-0.0399720164607985,-0.693061569120002,0.480189509135359,0.181279202035062
178,280,0.727265357238498,-2.10741453681158,0.969094036141239,0.0163235758672956,0.0804534015915693,-0.0385056148519494,-1.56943685161784,0.524758316636833,0.245172637919212
179,281,0.72744892326508,-2.1064855743271,0.968767957634645,0.00356252467275302,0.072923472710621,-0.0351466616298571,-1.37487430832045,-0.559453259712441,0.284232134411292
180,282,0.727681878201565,-2.10562729614384,0.968350522280161,-0.00193253930377198,0.0683899671115739,-0.0219109292523513,-1.14901409104518,-0.281653790997433,1.52000099708178
181,283,0.728188166580186,-2.10478789923667,0.968084531212441,0.0107025757025496,0.0709691184957748,-0.00104387178157895,-0.879591188152893,0.00167425211509955,2.29079824139042
182,284,0.729101633732458,-2.10390815574881,0.967874794983107,0.0407570876078709,0.0727480543287694,0.020282048181801,-0.658474749503085,-0.49525688499909,2.69296501846299
183,285,0.730535808711684,-2.10305296472157,0.967922389576065,0.0708887441858574,0.0652548113565842,0.0405843698516808,-1.69145855364277,-1.04567298596131,2.87822171959266
184,286,0.732456696288786,-2.10236873715638,0.968213994539194,0.0936592637542428,0.0375975540060783,0.0668264918533058,-1.87986114722988,-1.26584860512525,3.23791003688991
185,287,0.73444150619508,-2.1019939244761,0.968771979025572,0.111892487724673,0.000889456586241579,0.108586967842892,-0.247131823775145,-0.977234006608949,4.29731399303945
186,288,0.736430695037869,-2.10163419025837,0.969799506524419,0.134639186914866,-0.0256151978640109,0.148341421368341,1.3857498689719,-1.07875702906875,4.05554499008839
187,289,0.738359410335685,-2.10096372573353,0.971664384826328,0.154994744076608,-0.0244159912768447,0.174112532432055,1.27847699587651,-1.51714094995648,2.58522311395896
188,290,0.741359829297661,-2.10197040263067,0.97349585397656,0.179387543328665,-0.0259718941174313,0.178300867256823,0.293079591639126,-1.46779638404822,0.890715756230859
189,291,0.743560754738016,-2.10192205051475,0.975394132814202,0.178717876565925,-0.00389697492652534,0.172214659608374,-0.502684742398572,-1.18041731111793,-0.234918424244133
190,292,0.74544941105517,-2.10193685463557,0.977288628411213,0.161657426362449,0.0195376583262504,0.164545864602623,-0.64596503145087,-0.438207744200561,-0.722211474246234
191,293,0.746751341185744,-2.10180202620954,0.97918336946964,0.134347577183591,0.0400394864637464,0.155075125328997,-0.406736187482523,0.219058073485687,-1.16384134188714
192,294,0.747504876030949,-2.10164134337287,0.981043554063575,0.106228502397248,0.0553586819092548,0.140442028297791,-0.327574469767595,0.81786393458919,-1.68902069401384
193,295,0.747350404665541,-2.10159015610087,0.982584404735816,0.0960274904553862,0.0625284509843839,0.111940635483929,-0.17211540564042,0.359515578561931,-2.63391959724482
194,296,0.747145919643153,-2.10079169182394,0.984294966973727,0.0793295229615149,0.0725995274996657,0.0854315933631769,-0.670491203348998,1.23909629042838,-2.64919595379298
195,297,0.74642046716,-2.09966981385676,0.985044518237663,0.0584879302997102,0.0805946120228117,0.0550519537254786,-0.834491590960226,1.04022848680997,-2.84473570684329
196,298,0.745638212398028,-2.0985766311284,0.985452816852711,0.02328851635696,0.102149822690513,0.0364040391045772,-0.85507445336305,1.13570653868496,-2.98514569542501
197,299,0.744881718216983,-2.09763953727457,0.985729576420915,-0.00439602699323144,0.0761511719702671,0.0349573954305423,0.599630527069003,0.180351061019442,-2.53143388172327
198,300,0.744829087080656,-2.09666830085815,0.985658407786317,-0.00832209682786105,0.0642019345110995,0.0277619694932749,0.60052589612075,0.380994851185327,-2.02533987238707
199,301,0.745578581756408,-2.09561059294918,0.98522603238148,0.0149166133419376,0.0562173209746899,0.0174794376531558,0.429240324664403,0.27974946188162,-1.23543815870228
200,302,0.746804692504275,-2.09449230617601,0.984551505360471,0.0509065734227335,0.0582147262182806,0.00581499631037943,0.182450449302587,0.367908895976274,-0.591420793319004
201,303,0.748089302123065,-2.09330630020004,0.983750396465493,0.0816177966322841,0.0637024435604591,-0.000162063895722979,-0.0179626514342986,0.241953838462053,0.215325560980965
202,304,0.749181023744924,-2.09215848914892,0.982932683700823,0.101148640267639,0.0663667906014568,0.000761348098706867,0.725840855039888,0.13532824063627,0.723789379959872
203,305,0.749909195426147,-2.091218319275,0.982186860267983,0.1035214665139,0.0577173880390292,0.0105486322676112,1.65996007807372,-0.14689306910738,1.22057636212087
204,306,0.750309240022417,-2.09056237684105,0.981559274485823,0.0957352272988741,0.0424062790043879,0.021279248121883,1.93308017331608,-0.49935213006002,1.28096695000734
205,307,0.750467789213936,-2.09011424873458,0.981009653689586,0.0842573249018546,0.0321431249839161,0.0228941309286898,1.46532779347585,-0.940007165119947,0.710916140811895
206,308,0.75033979250011,-2.08977772207525,0.980523809513414,0.0650626327438652,0.0243389870918543,0.0205453720502642,1.0522467033486,-1.02048312835893,0.211216399908389
207,309,0.749875398325714,-2.08954584513595,0.98010396895568,0.0357095417285083,0.0147372176992344,0.0189413109006741,1.05605820445656,-0.786023368651701,-0.139611865475071
208,310,0.749048316024491,-2.0894145343532,0.979740620657341,0.00246034600458616,0.00311537560341313,0.0159419760158908,1.14071819126599,-0.43272314724767,-0.49922046066345
209,311,0.748096232067763,-2.0894150323383,0.979416313693784,-0.023774005754378,-0.00214925138904164,0.00667851724647813,0.860521438536593,-0.183823260898654,-0.843752315430676
210,312,0.746906425141893,-2.08933746729753,0.979030237992717,-0.0391210081592537,-0.00435400960437557,-0.0102086626268626,0.131631323046553,-0.446334961535414,-1.29365817140575
211,313,0.745706414628805,-2.0893195351475,0.978544375742212,-0.0426901624672413,-0.00239879673487566,-0.0306654855699398,0.111489006280945,-0.297365437781038,-1.50853986658847
212,314,0.74455930703832,-2.08933218110077,0.977969335863498,-0.0461650642919492,-0.000556837265212968,-0.0517781353591501,-0.167909281731118,-0.381870785638224,-1.6801328872621
213,315,0.743463316196557,-2.08937448244569,0.977304094966874,-0.0470522602301822,-0.000780104534125178,-0.0727102794787719,-0.208435953077086,-0.468297151457839,-1.74552324470323
214,316,0.742407998474927,-2.08943951880125,0.976564217929343,-0.0468474361753526,-0.00219961445695784,-0.091292159681081,-0.100786698329406,-0.410876315637523,-1.69013386871771
215,317,0.741420145602082,-2.08954435698476,0.975774289254537,-0.0454989691080593,-0.0061173001611957,-0.107195975820233,-0.0341812257482959,-0.383715933951231,-1.59293696428584
216,318,0.740462683187529,-2.08984192789549,0.974953519685339,-0.0389767873622283,-0.00851533346091157,-0.121041596477121,-0.245355014719055,-0.233514688188248,-1.40630818144802
217,319,0.739825227659298,-2.0900464476761,0.974211347196923,-0.0316764981557335,-0.0171149613942404,-0.124468289083269,-0.656044093097944,-0.80399457781342,-0.672262084624113
218,320,0.739335913579692,-2.09038126105918,0.97354257925621,-0.0277586287622218,-0.0338979954071374,-0.125742930533317,-0.521403348748275,-0.897087311674662,-0.854433522126406
219,321,0.738885078492967,-2.09095816595946,0.972911086155725,-0.0280670731717729,-0.0597090794460636,-0.120388085327076,-0.381051233044831,-1.39138084391558,-0.157205093731553
220,322,0.738431016861066,-2.09188412588247,0.972408979628505,-0.0297985091103007,-0.0918260445917959,-0.100580016239921,0.0157325436537931,-1.54417066627875,1.32157530615592
221,323,0.737906836842218,-2.09312906403008,0.97214574239898,-0.0358793051290686,-0.118438940595926,-0.0668396961028429,0.367628681765076,-1.23858540970506,2.46753513868063
222,324,0.737423585213175,-2.09459691941178,0.972100805740881,-0.0432138441233912,-0.13535021986248,-0.040477805614104,-0.525559020766154,-0.861322912912529,2.06887771195406
223,325,0.736923471342233,-2.09606924073814,0.97218795617873,-0.0474567676642071,-0.151336396679465,-0.0198834399770701,-0.923801385197676,-2.05714749690807,1.9577071872123
224,326,0.736315191702706,-2.09746254575463,0.972409131940942,-0.0520719673416279,-0.157645976361604,0.00763640478387688,-0.739203383359184,-2.40917060459514,2.70306442933678
225,327,0.735696951536669,-2.0987659975546,0.972840632031369,-0.0587771216511224,-0.154747973804408,0.0448803015524998,-0.602712184957176,-2.04927135633403,3.68182935312363
226,328,0.735026755144929,-2.09995806803022,0.973646494421618,-0.0692725594819769,-0.145141202486597,0.0928831813286663,-0.327688671390846,-2.05508896863008,4.91215519553648
227,329,0.734400659659944,-2.10099878814984,0.974803103070674,-0.0859526227312561,-0.11543181248722,0.143984756269145,-0.172421603212409,0.0973135923660776,4.78458820088739
228,330,0.733476901872124,-2.10119839988453,0.97604261976955,-0.108082480608798,-0.0594507669300593,0.164729463733083,0.185731174406483,0.906497959740883,2.66640528666817
229,331,0.731957129897474,-2.10202704017298,0.97723709992586,-0.114856694936287,-0.0421532033855575,0.173587758858906,-0.778632203597757,0.281260784591319,1.60572986018596
230,332,0.731258007160588,-2.10208051462783,0.978340773742481,-0.119722610176732,-0.0434212798627892,0.170894167977145,-0.691390274968211,0.486793642808332,1.08770528652829
231,333,0.730550286019734,-2.10249027790255,0.979137548129835,-0.110498924544796,-0.0579763981865682,0.131513866437452,-0.0494353777978774,-1.08578203899112,-1.09779653644437
232,334,0.729709467395267,-2.10308246363473,0.979549363460177,-0.0914246361576169,-0.0827169545946821,0.0890993449145452,0.666935239796529,-1.3833084844447,-1.68707810323525
233,335,0.729237705440499,-2.10364872223971,0.979514005544605,-0.0588021286729778,-0.0907799641737313,0.0399464808723458,0.850914811398883,-1.36394433270947,-2.38642987694073
234,336,0.729005021759359,-2.10382069105805,0.978133942133528,-0.0246588951235079,-0.0786603787138678,-0.0128806887090523,0.575818356966713,-1.27965738211575,-2.91468038710246
235,337,0.72896933495909,-2.1034366056434,0.977610947375832,-0.00386849600693618,-0.0502789369353866,-0.0553729558905375,-0.154204187480266,-0.706770525576906,-3.16319898136275
236,338,0.730805228040064,-2.10431223505996,0.977061385746638,0.0351016397463089,-0.0519207531160345,-0.0876136765326583,-0.372131276992709,-0.32534466770463,-3.27434321586851
237,339,0.732082118382265,-2.10472023418641,0.976157679019402,0.0464743971535866,-0.0508778605229093,-0.108363357227352,-0.304247581247723,0.22397510971565,-2.75986688859728
238,340,0.732699961549852,-2.10468577017167,0.975252987570508,0.0381314405190632,-0.0370373526910764,-0.119153886583464,-0.304830455475215,1.04780974441601,-2.00999568986546
239,341,0.732618283834745,-2.10430653951158,0.97427715025889,0.0255875518280794,-0.0122758668172849,-0.127903487007068,-0.337028418786429,1.51840241237521,-1.56226861645053
240,342,0.731644125812513,-2.10371999572735,0.973056572542056,0.00950084218922204,0.0102285065040658,-0.133581544521447,0.120949572740262,1.488649073426,-1.03355322818155
241,343,0.731172823794754,-2.10318715577583,0.972146905192084,-0.00273551779062322,0.025073812309187,-0.12741785162402,0.549173297007801,1.83488021992887,-0.395327125341504
242,344,0.730877682491517,-2.10257314206878,0.971376541278537,-0.0140045521379699,0.0366151753941257,-0.109179817995102,0.804337414719674,2.27430045518982,0.490140034293485
243,345,0.730718128812628,-2.10197777603449,0.970929296067346,-0.0268422422241013,0.0456509174660379,-0.0810710874480237,1.07241849053764,2.53718510487756,1.22931401634644
244,346,0.730670489182038,-2.10139592807435,0.970682334245961,-0.032662585346041,0.05894031123912,-0.0591555118745218,0.940860982885263,2.15664153876027,1.02894385598031
245,347,0.730292115386178,-2.10139412966895,0.970655896803767,-0.0391711601247951,0.0694483362520619,-0.0492387566074599,0.354152560770383,1.19100681404975,0.232509289746404
246,348,0.730538204321928,-2.10113935567798,0.970690586004317,-0.0384762358752624,0.0832059132862219,-0.0456381163454756,-0.3920544257725,2.06214649142203,0.0235128744353712
247,349,0.730455194072615,-2.10125379713463,0.970795238444244,-0.0523158238338172,0.0625882546031672,-0.0388300134460424,0.158420663789338,1.7064505591224,-0.0105367150774862
248,350,0.730140668383621,-2.1016517259832,0.970899909245075,-0.0591001650205206,0.0472920437367308,-0.0385799942538013,-0.364287917537479,1.81239855065492,-0.216140167217353
249,351,0.729661156684787,-2.10219147119975,0.971008076014666,-0.0585749310187744,0.0350739104452217,-0.0369190369325463,-0.268797023384335,1.61665900874089,-0.0835255798724643
250,352,0.729116518170288,-2.10271001559507,0.971122021763231,-0.0529492300938954,0.029894984662208,-0.036043836591335,-0.260246442262211,1.29998031772349,-0.0964549131726623
251,353,0.728566330911995,-2.10312606515368,0.971134644242222,-0.0467880409359104,0.0290622318161421,-0.036578110979375,-0.147563822230645,1.05996675055509,-0.202214278041853
252,354,0.728066839916099,-2.10345000790854,0.971202371251748,-0.0420971908644343,0.0286741668134981,-0.0386838285981736,-0.0118033834973282,0.744622908187655,-0.434923575214396
253,355,0.727677198861526,-2.10372974194931,0.97112605790036,-0.0377165678524722,0.0283295419301443,-0.0418690968285613,0.237043295104094,0.486690382220934,-0.550166302680328
254,356,0.72739982191138,-2.10398332019403,0.970949077621747,-0.0324046148328983,0.0301987522417018,-0.0457680391440704,0.374145088871602,0.352784709740682,-0.579753919236356
255,357,0.727238464164953,-2.1041331300034,0.970816317530756,-0.0250768983916862,0.0344540310809639,-0.0503205502561977,0.387352374308088,0.180947986593028,-0.635119829127521
256,358,0.727190578211636,-2.10419797121237,0.970626519103698,-0.0178229942675224,0.0397569247748089,-0.0549693984467255,0.317475551215646,0.294980882398951,-0.638007721187367
257,359,0.727200611986201,-2.10413324394582,0.970362694169445,-0.012647866487694,0.0448067847376131,-0.0591331048903296,0.0959175896619688,0.390311003651574,-0.58266389911996
258,360,0.727276951265164,-2.10391954570033,0.970030129295139,-0.00982542875283778,0.0527269086673798,-0.0626000830551828,-0.183479950829595,0.474668639876538,-0.47787534321502
259,361,0.727416478545881,-2.10355557029867,0.96963441593607,-0.00535622432541846,0.0622770221972829,-0.0641506235066005,-0.314432048072895,0.614160252315493,-0.213867582941346
260,362,0.727617607403512,-2.10303278539869,0.969216188890815,0.00192576734079947,0.0697266255115589,-0.0576212396226658,-0.118378166578252,0.342736228037413,0.552079483462353
261,363,0.727839245880895,-2.10236698470656,0.968759334061897,0.00155840346141155,0.082336317244099,-0.0443597422448987,-1.15765947620746,0.86722507897223,1.20518218641109
262,364,0.728109436248499,-2.10155702411623,0.96841643689282,-0.00792204602686253,0.0813879452986051,-0.0429126739329981,-1.87096593865678,-0.230388543517834,0.100333053754417
263,365,0.728385528692847,-2.10080707227754,0.968106056980242,-0.0164049766415429,0.0749851875449701,-0.0272449778946441,-1.73047128371716,-0.115850443640545,1.67225189552792
264,366,0.728803015029897,-2.10011623292064,0.967924032015382,-0.0120908965006873,0.0749982181654443,-0.000286939191161787,-1.74993991072906,0.363407196227296,2.81572808893228
265,367,0.729482568322403,-2.09941029290216,0.96790271458906,0.00957122987010605,0.0715114302744515,0.0306041898032539,-1.31437871120153,-0.280077451670404,3.34846727430764
266,368,0.730723364568743,-2.09884035605219,0.968161870652022,0.0357194071681835,0.0574454464562386,0.0604424454950789,-2.39579020027198,-0.954219656174352,3.63762377688638
267,369,0.732350447799028,-2.09864312534168,0.968673886807107,0.0639731721031745,0.019657107992889,0.0944571386373314,-1.7893034870851,-1.20883753800482,3.97761299702332
268,370,0.734219520887579,-2.09888574294072,0.96955922271992,0.0934438280757937,-0.0306594347760408,0.139838488835142,0.639794916076082,-1.28991017605418,4.63681893925635
269,371,0.736216319534524,-2.09943009447628,0.97087200350413,0.120755052619343,-0.0733717339413873,0.174895996660815,1.85552146756269,-1.31802382588746,3.62632884107209
270,372,0.738412416327647,-2.09971853458921,0.972979348050876,0.140378569490872,-0.0840269300639979,0.195241082838878,0.725484060189808,-1.09835068882885,2.12841333321139
271,373,0.741233771407298,-2.10175271878639,0.97498305633033,0.15757578760873,-0.0926328934024454,0.194642246361337,0.164932748179327,-1.12372822961184,0.401872788923889
272,374,0.743241164241296,-2.10236828833886,0.976663399210963,0.152718257119919,-0.0706743205392353,0.179913678898623,-0.251518355423369,-0.823338592049929,-0.901144594479553
273,375,0.744827037399937,-2.10322759873696,0.978291017566463,0.132807819644866,-0.0432609523807424,0.160763852305995,-0.47472721673488,-0.251238393828057,-1.49223359787703
274,376,0.745767672908081,-2.10373532106472,0.979831510166509,0.105340737314708,-0.0155230114714009,0.138124237706918,-0.47227518037087,0.253366293778119,-1.99442301747854
275,377,0.746239232651673,-2.10403752000101,0.981287296581099,0.0815453130966646,0.0116709295107711,0.109898793618181,-0.583060211534716,0.744312688921656,-2.51079249448237
276,378,0.746361493612113,-2.10393011808724,0.982601226913589,0.0665482685103482,0.0370047105226519,0.0760524865921483,-0.749992567325574,0.907516597977644,-2.96760133450472
277,379,0.746164409778404,-2.10347411342832,0.983606779611513,0.0540472544400406,0.0559821594013124,0.0416349429681276,-0.769325853311337,0.864330112855028,-3.20823444070361
278,380,0.745851454273124,-2.1027856177778,0.984460621285266,0.0362414756151215,0.0615021941696554,0.0140429759926529,-0.458425481612246,0.765451359789953,-3.21961254867953
279,381,0.745528204140269,-2.10213858741134,0.985144999756058,0.014211828434326,0.0512386128594694,-0.00544390729941951,-0.0363753967245085,0.642961493761482,-3.09894472635943
280,382,0.745250695351275,-2.10175617511538,0.985224155133718,-0.00599139494950558,0.0284210450587547,-0.0216526564995429,0.274866544475735,0.517929196703348,-2.71233597990976
281,383,0.745353385697461,-2.10085071992367,0.984839778034046,-0.00921210104398258,0.015786749886856,-0.0355541370336166,0.190621113775582,0.33835390479412,-2.02104519934571
282,384,0.745838923887532,-2.10010792642902,0.984247770979507,0.005032666108721,0.00378329559490332,-0.0452991231224676,0.231598382234028,0.187577137452801,-1.22234833978877
283,385,0.74673491874542,-2.09933317690795,0.983265163996826,0.0352795803127042,0.00205154657123109,-0.0562212803911209,0.0164711520881231,0.169590208660384,-0.582659906525608
284,386,0.747798941560061,-2.09856766685511,0.982188144964067,0.0708191089671383,0.00883738883924875,-0.0615122053841431,-0.106549331926285,0.0558595626833828,0.289012866615204
285,387,0.748736727444655,-2.09782982757191,0.981185266109264,0.0950636630916367,0.0101142518922921,-0.0528076389540984,0.672737493384462,-0.0735179796613929,1.22942439164948
286,388,0.749310970527225,-2.09732885750729,0.9803974306051,0.0976874858965418,-0.0056519886983087,-0.0312211520756215,2.0435777916622,-0.565590405107736,1.74635647719376
287,389,0.749498821912675,-2.09714629652421,0.979850087825059,0.0872239438358414,-0.0280832151113949,-0.00938541605422945,2.57722946321692,-1.09821919194217,1.61723984565379
288,390,0.749509710660975,-2.09716182466618,0.979413091897289,0.0795253761214606,-0.0375346787668639,-0.00327165939932725,1.71102437273991,-1.52818704833972,0.771850555820281
289,391,0.749316452858162,-2.0972859113833,0.979012348135419,0.0641635536462864,-0.0401060209737563,-0.00268104656028994,1.12800524198165,-1.43820389539014,0.199238786035301
290,392,0.748802340452802,-2.09754765718281,0.978660313677744,0.0344532633374791,-0.0475958700931575,0.00126224798869579,1.31674983656128,-1.0474870884382,-0.00812856735243622
291,393,0.74801521502955,-2.09793464887207,0.978349546227358,0.00149333414242428,-0.0563839564904434,0.00404477898800852,1.33487064322847,-0.53190234014286,-0.235322306295038
292,394,0.747044589743748,-2.09834799412137,0.978028638702395,-0.0230926398516301,-0.0606174222952399,-0.000547878637133766,0.860546034325752,-0.231127105223983,-0.609775478485335
293,395,0.746003745327088,-2.09868793833656,0.977635832835418,-0.0353588703533773,-0.0587833809657878,-0.0130304812603813,0.519292419210303,-0.348333840898083,-0.991311607817379
294,396,0.744960074343603,-2.09895511926386,0.977134019388002,-0.0388849992214544,-0.0541247789162782,-0.0307096377959225,0.268284109689295,-0.392531570295461,-1.28512027911802
295,397,0.743954756227604,-2.09916481004893,0.976510266826532,-0.0371474766433128,-0.0480699876991685,-0.050860174987717,0.164654868733111,-0.459021587942281,-1.46668877665999
296,398,0.74299908754426,-2.09936169171759,0.97576296030694,-0.0329346811197788,-0.0443138311710079,-0.0728561256475908,0.124871641648665,-0.553090140444248,-1.67630190684403
297,399,0.742121283835504,-2.09958820566305,0.974895061110125,-0.0263699431452762,-0.0425919562726679,-0.0948879407800047,0.0578431201823841,-0.616226112968504,-1.73074603564619
298,400,0.74133017257663,-2.09986272673504,0.973925190963523,-0.0195946699522442,-0.0408723818700844,-0.114741077785181,-0.036126727702915,-0.563526673703263,-1.63946694407581
299,401,0.740660518281977,-2.1002503789476,0.972916430261405,-0.0130908492698058,-0.0431821834496073,-0.127030945287499,-0.35708432875285,-0.78708219744342,-1.04100056243826
300,402,0.740197258724589,-2.10081849891786,0.972046169189961,-0.00503479458702209,-0.05346521335302,-0.141808779959806,-0.29244495305752,-1.31026562126839,-1.45860606371931
301,403,0.739841333746754,-2.10169050481572,0.971185977993962,-0.0033343598873345,-0.0717994177990696,-0.150374008678185,-0.574239148531271,-1.74447848702457,-1.01357026632494
302,404,0.739514266479155,-2.10304897594466,0.970424557543288,-0.00843695564790345,-0.104361250591142,-0.141715153930323,-0.289738537262629,-2.01745865519143,0.45998417454067
303,405,0.739186882155293,-2.10491441383205,0.969910545098466,-0.0175950952124692,-0.138947594977857,-0.114894864637719,-0.211066645163859,-1.81397365463214,1.7906068411432
304,406,0.738954498468674,-2.10719410047723,0.969674172415703,-0.0229173838745248,-0.163140842102693,-0.0861808763042379,-0.688473310128984,-1.23177639435772,1.92492593864243
305,407,0.738908039008828,-2.10966017810802,0.96962206264375,-0.0207605905105129,-0.184397442621698,-0.0666009330747834,-1.04063782759508,-2.16488814752962,1.54932779871736
306,408,0.739021282649261,-2.11211306398503,0.969686834326225,-0.0162051871735895,-0.199963856185161,-0.0447904791604376,-0.876497104718193,-2.92794319384399,1.95017797046967
307,409,0.739347355102335,-2.11445602822363,0.969940907360662,-0.0130095411498089,-0.205637585869767,-0.00692621822884892,-0.301453694143838,-2.29486311302673,3.36654852382331
308,410,0.739866172781101,-2.11646918672728,0.970560092888007,-0.0143919192147096,-0.199791882461853,0.0506079517082797,0.786023467625019,-1.66018726062465,5.10684717926423
309,411,0.740457047592757,-2.11799727939133,0.971642436541359,-0.02806563526627,-0.171785610132084,0.107298505292591,0.656193187048951,0.41174505499818,4.64012050889735
310,412,0.740766358916563,-2.11802180140468,0.972582562681781,-0.0567225848613412,-0.115582785540859,0.143633359191808,0.266098439387589,1.48056038471122,3.50901839459765
311,413,0.739507794680817,-2.11910232359448,0.974056753760613,-0.0893102722072616,-0.0844275164668041,0.160260504297617,-0.345279913769035,1.14490644863167,1.73704060215761
312,414,0.738687517996244,-2.11864807406882,0.975404999661069,-0.0937611588737065,-0.0461677507249868,0.153527925638762,-0.421124952723104,0.269304954743665,0.0549633773663676
313,415,0.73769676383461,-2.11838477368848,0.976548519567297,-0.0847413133670184,-0.0287669837506886,0.136309022123356,0.151561966375162,-0.818432406855684,-0.940319079102957
314,416,0.736821190931956,-2.11822669931184,0.977381499970478,-0.0655953370155276,-0.0292012999397813,0.113746223774741,0.825984679087191,-1.1775131126667,-1.39083720477073
315,417,0.73601889048878,-2.11814984886872,0.977062112249524,-0.0432411897338469,-0.0283906255032658,0.0788678118845512,0.805325800638075,-0.835386700494197,-1.99280023819865
316,418,0.735034918304503,-2.11768874517045,0.976715910657306,-0.0293673433791825,-0.0140476404527176,0.0392884549330706,0.0450637453821507,-0.635773143773182,-2.43762701426788
317,419,0.733134136148235,-2.11662634298352,0.97628096828336,-0.0448856219371966,0.00757503537383214,0.00347050379881536,-0.274097846593877,-0.317775785118618,-2.55612097325974
318,420,0.729919896961147,-2.11495395636475,0.975823610738093,-0.0914220335974773,0.0323932989959846,-0.0195433252327092,0.0344669202291863,0.249855237032158,-2.09571023061801
319,421,0.726172637326366,-2.11309283811421,0.975456005911043,-0.144634981949774,0.0591602934058805,-0.0324277803213791,0.276222155263974,1.07523601576508,-1.55888882344433
320,422,0.722715157081878,-2.11144244086285,0.974948836540455,-0.179929381625464,0.0858772356986551,-0.0431588809501715,-0.118013071626645,1.67120573618055,-1.17782253562416
321,423,0.720033589110122,-2.11028615153484,0.974362409320419,-0.195363963743299,0.104964076835563,-0.0480721621247474,-0.138285763118207,2.40131841695249,-0.577062624090869
322,424,0.718168552161229,-2.10953928770224,0.973735176874979,-0.19349439513742,0.113594495951781,-0.0485460871892328,0.165306269034567,2.55861623265595,-0.285946174985317
323,425,0.717097265646711,-2.10912803232475,0.973129516095738,-0.183262789593587,0.10990276757182,-0.0406938620375631,0.486957862735203,2.63177344647402,0.269946483459385
324,426,0.716577479823193,-2.1088633393557,0.972797112977209,-0.173893086169936,0.10259298487291,-0.0249001334935923,0.586775988661343,2.64219409670385,0.767132288838936
325,427,0.716524801508834,-2.10866826101777,0.972667103618045,-0.160164889881107,0.0979742777304239,-0.0129254381907743,0.49586499418187,2.3030132349013,0.573180959332961
326,428,0.716708419886827,-2.10841421597714,0.972551574415383,-0.142037057847992,0.102516840881212,-0.0120866477779366,0.0429500731420864,1.58083264615806,-0.0503753997596651
327,429,0.717013612563102,-2.10826304988996,0.972545583942411,-0.129335405983629,0.103212439579552,-0.0111108413816606,-0.102237430485253,1.46713938884284,-0.25909779704178
328,430,0.71737359024784,-2.10836983291576,0.972509897135753,-0.11785811496812,0.100124479376111,-0.0107595102228753,-0.147049564836637,1.63278287823264,-0.380397662973826
329,431,0.717880095763433,-2.10886142523403,0.972439553229133,-0.10209619899051,0.0922353574498711,-0.0122949453879127,-0.307173938295934,1.73654177738734,-0.440622609373952
330,432,0.718195638965722,-2.10949620857841,0.972468695965955,-0.0867496040182488,0.0829142184502597,-0.013019298603096,-0.329590786694135,1.68419016802251,-0.326047035999195
331,433,0.718446072267085,-2.11027621820069,0.972477501571011,-0.0692893232450632,0.072648739159174,-0.0153830366552364,-0.251740924149054,1.57286813477492,-0.352022076850736
332,434,0.718552347593492,-2.1110149306019,0.972461255090571,-0.0540006082445216,0.0631182036553426,-0.019036822002819,-0.257643454400035,1.28646001631829,-0.399646403229502
333,435,0.718609489795228,-2.11171496025666,0.972411522624899,-0.0412904138218935,0.0552271447017593,-0.023985423019566,-0.0537487998705918,0.932139208004494,-0.545723141516916
334,436,0.718703563653124,-2.11229565970429,0.972343964458558,-0.0310808728386012,0.0485335884102971,-0.0301594402133753,0.206288730203175,0.57882333695943,-0.675360345360447
335,437,0.718761996061596,-2.11280555816905,0.97217097036469,-0.0234555666556217,0.0447076700870277,-0.0374842441571844,0.189272311272794,0.228781940243287,-0.796764725204748
336,438,0.718883789004302,-2.11317170342628,0.971861246702899,-0.0140721047919427,0.0461451035129094,-0.0455982265612836,0.316608287307599,0.252216843597455,-0.803948545006284
337,439,0.719110173191102,-2.11339258779789,0.971441491648246,-0.0058609916944487,0.0481601134089738,-0.0540328618470782,0.174729179948156,0.192532344883538,-0.793277973466646
338,440,0.719393375192584,-2.11368825792005,0.971009914727377,-4.54724339822533e-06,0.0515025279358843,-0.0585872890515096,0.0603336278948833,0.334637130470905,-0.526653794227208
339,441,0.719704499071841,-2.11355215775589,0.970508699374605,0.00375748148403656,0.0517972834196,-0.0656338244789843,-0.0137705586760351,0.201318078514773,-0.691370670582713
340,442,0.720083908451628,-2.11331267876939,0.969988495919795,0.00735869930589954,0.0511587652979999,-0.0637795931725059,-0.0806204519247094,0.484719514306751,0.0330600569848048
341,443,0.720452783241087,-2.1128652234857,0.969578332263357,0.0147919142654915,0.0551749455165023,-0.0540829424026817,0.12478714206711,0.399931288840431,0.568681757683557
342,444,0.720856388769399,-2.11219417878864,0.969251704986918,0.0157929407491093,0.0683831948219689,-0.0410784702715064,-0.869800601987655,0.864378402688512,0.75044513242758
343,445,0.721332823467371,-2.11131570924564,0.969009281023594,0.0100403192074015,0.0722985325566117,-0.0334161742783155,-1.29226950571493,0.160806435468479,0.56736279423139
344,446,0.722326016885038,-2.1100131393929,0.969544245853406,0.00588368935492936,0.0690136977346732,-0.0193272887654231,-1.171887648901,0.0226123053827141,1.57478405670513
345,447,0.722926506865408,-2.10911985647784,0.969294039273057,0.00101992604746273,0.0767391788595013,0.00251007694256471,-1.52887905855688,0.658958130239794,2.15108098802523
346,448,0.723846416080482,-2.10816765389011,0.969219992018265,0.0254226950644968,0.0814043975268691,0.0302991822377803,-1.82203572537574,-0.356356777447461,2.43958698619421
347,449,0.725136862218553,-2.10722293285443,0.969403495933823,0.0571786337143897,0.0783168408493333,0.0584697953635088,-1.50098007643384,-0.867138527848838,2.53467353348441
348,450,0.726725238142539,-2.10644052139553,0.969802385411379,0.0871725232640595,0.0594639739194526,0.0778088616852962,-1.34281318727516,-1.24026427238247,2.26806231718662
349,451,0.728524513504354,-2.10592408944348,0.97025107185548,0.107261879342576,0.0309575266624512,0.0998061254306606,-1.42181799986539,-0.915254447002405,3.06884869252756
350,452,0.730456065559373,-2.10558615647473,0.971005415826003,0.12480913785857,0.000810409772726958,0.130693435674138,-0.30814510446165,-0.711137242572551,3.71935384538164
351,453,0.731874014774836,-2.10524055919174,0.972777600686799,0.130833946108799,-0.0164180720367168,0.167704285053113,1.0964125961227,-0.925459245184242,3.55658531023911
352,454,0.735080691269051,-2.10615580912821,0.974561491497211,0.161620628933392,-0.0280507451673365,0.184669263241902,1.0426738688505,-1.13283602515765,2.25631713714849
353,455,0.737182925961902,-2.1060253049825,0.976249958699755,0.178148479860667,-0.0133064261659572,0.180415088326585,0.270889285295106,-1.00533679536365,0.567109387371216
354,456,0.739262673707683,-2.10585199806349,0.977891717581707,0.181148807139806,0.00832594283417518,0.167388446344771,-0.374973783223346,-0.747444020457844,-0.398011367261043
355,457,0.740841875660608,-2.10552447080153,0.979525349194198,0.163498751439594,0.0278550989773447,0.153312152189298,-0.635524234801658,-0.303547238677799,-1.02503393209858
356,458,0.7418389588387,-2.10529195133859,0.981176346714946,0.130881148977897,0.0412372602143357,0.139019850596113,-0.523198535884437,0.0374788946362175,-1.47146361399243
357,459,0.742256700267941,-2.10516090030849,0.982795271377252,0.0944817280587038,0.0463425867860322,0.121000507198381,-0.364280687057737,0.281564473537605,-2.00138230610242
358,460,0.742146160295222,-2.10513450865695,0.984317433722281,0.0606612181871035,0.0471772282477836,0.0980832254981316,-0.45897784502499,0.390187572781598,-2.43075386612615
359,461,0.741575196597655,-2.10508161493464,0.98505453099299,0.033004111488496,0.0437027335827649,0.0679371284577178,-0.631293553464186,0.275297459255862,-2.88185164586147
360,462,0.740707890433616,-2.10489323248914,0.986063229683107,0.0118739131853847,0.0381884314140583,0.0371995239533739,-0.479318810870398,0.149554679993223,-3.21904203402042
361,463,0.73996526005866,-2.10455289066272,0.986751528327731,-0.0039958740099488,0.0304563218914858,0.0115595517872866,-0.101447388504165,0.161564410238649,-3.00982329460989
362,464,0.739508657202281,-2.10416945949493,0.986744863674517,-0.0147611617132811,0.0202508192203583,-0.0104885098054512,0.120162778424711,0.17553619452155,-2.54637742961191
363,465,0.739427536949654,-2.10322010687215,0.986189940430759,-0.0163638969292476,0.0209093284563722,-0.0313693483243913,-0.316417516754601,0.432460973940129,-2.03011464141727
364,466,0.740255457981308,-2.10171026888864,0.986237967901558,0.00489717200316416,0.0125127647633209,-0.045106024978729,-0.313590759733949,0.489482550051711,-0.927359125953979
365,467,0.741106952502393,-2.10047218768334,0.985091823796488,0.0232251101276567,0.0270438677256824,-0.0521646562262145,0.520713152035856,-0.456628816684714,-0.482419102139262
366,468,0.742135341085754,-2.09948574816844,0.983940935027231,0.060352163535678,0.0347702545320649,-0.0439726689947356,0.555600357321375,0.200511011036027,0.660564940065654
367,469,0.743031645144791,-2.09850157436587,0.982894118471596,0.0824965035053012,0.0396678884608832,-0.0274768948624776,1.49449401564883,-0.214046524112199,1.40909187667659
368,470,0.74362483204031,-2.09784429076859,0.981963905981849,0.0882215690357881,0.0296101544436012,-0.0114414641902594,2.17219453804802,-0.57992168221392,1.62865130596971
369,471,0.743923793126312,-2.09747622423949,0.981117936671924,0.0856794436659242,0.0172845187289056,-0.00573064146805914,1.99527783472745,-0.951717527013139,1.18236386347617
370,472,0.743999797220682,-2.09729647603026,0.980302841924969,0.0815258092057961,0.0128042568130974,-0.0135841996093869,1.12641340803343,-1.26263032526565,0.360755281845462
371,473,0.743765126134774,-2.09720014079867,0.979529980956111,0.0652547860621023,0.00884702094007543,-0.0215326719863385,0.773894637545691,-1.25031493506259,-0.0054795867719511
372,474,0.74315854795796,-2.09723104105117,0.978843971136047,0.0349417776478074,9.48496908940853e-05,-0.0257305599293415,0.808871725918823,-0.718981436900771,-0.235399366389703
373,475,0.742214510302067,-2.09739114422762,0.978252635215995,0.000819562388610609,-0.0127191548486381,-0.0289166466430108,0.707805060972102,-0.332899966882148,-0.434947145822974
374,476,0.741072918375065,-2.09760250629207,0.977716659515341,-0.024850494585611,-0.0204438302706648,-0.0366441339824477,0.45758663243326,-0.145212073502559,-0.773059181232225
375,477,0.73984830531597,-2.09784558035837,0.97718460518596,-0.0393041270250898,-0.0244871203169441,-0.0485557885819329,0.31613587837961,-0.209328960184533,-1.04304420697122
376,478,0.738625802208726,-2.09812050011628,0.976630525690979,-0.046286719333051,-0.0241286903799515,-0.0624286317464305,0.277371930417557,-0.230107712183727,-1.21500237103546
377,479,0.737452246706473,-2.09847830628608,0.976044869171539,-0.0497122929064059,-0.0259999400678451,-0.0773090508805522,0.213104928382617,-0.338599683259969,-1.39258099831856
378,480,0.736364516305073,-2.09892703023865,0.975410099702502,-0.0498539840056869,-0.0285762596586085,-0.0938451296875214,0.128132691901276,-0.353654945277225,-1.59958066871729
379,481,0.735384598653716,-2.09944562348515,0.974710537102774,-0.0471048518175488,-0.0312844537020492,-0.110800089255937,-0.0283631732867965,-0.413866672695793,-1.67776393438852
380,482,0.734512254448113,-2.10005550492999,0.973959620566678,-0.0434561754643044,-0.0366015294880537,-0.124686569408238,-0.127913492621303,-0.29979484030145,-1.51514354346402
381,483,0.733751373714336,-2.10078065469735,0.973219500119077,-0.0432621300794948,-0.0456342820384778,-0.130434520073813,-0.501275597691466,-0.456454692138346,-0.930827164404971
382,484,0.733150479206459,-2.10163841824218,0.972544329920591,-0.0410345756790089,-0.0624803355493331,-0.136181892637637,-0.339429227670459,-0.863728273469949,-1.05575161094933
383,485,0.732651357931688,-2.10269749210246,0.971886250148355,-0.0380593104966345,-0.0856451515205711,-0.135471161000391,-0.357323495332021,-1.14808982639405,-0.477629495433931
384,486,0.732239690103752,-2.10405502454033,0.971321521771411,-0.0358811885428776,-0.116196666990898,-0.122255837385995,-0.0641716974427477,-1.28198124235663,0.75469654163049
385,487,0.73187220533243,-2.10570733640434,0.970951509670869,-0.0343963199108637,-0.147241011835736,-0.0917778183163495,0.313915635981756,-1.15490126721696,2.25715031181496
386,488,0.731659800470448,-2.10751504715907,0.970834125576369,-0.0328644822015093,-0.161732226987813,-0.0616985093170888,-0.15940166958323,-0.430691693543762,2.15554729408832
387,489,0.731741686710694,-2.10923839198662,0.970866454962724,-0.0268723581106385,-0.171214602663222,-0.043354789596993,-0.833845919219601,-1.08748482867262,1.53599870043998
388,490,0.731971153700694,-2.11073523294421,0.970988220008891,-0.0177201279979409,-0.174978485889745,-0.0189652532677103,-0.688902148763181,-1.85774365853242,2.27084636332927
389,491,0.732307082780768,-2.11196377637866,0.971240232190685,-0.0105203523489094,-0.163182701196109,0.0105872208169007,-1.07090605870873,-1.44247282836861,2.95497863600126
390,492,0.732575055295544,-2.11289237882835,0.971737616508887,-0.00843887139066818,-0.140634666546008,0.0527137769377637,-0.403918875896239,-1.04623502502834,4.17218061003819
391,493,0.732720784117975,-2.11336375422122,0.971904695094178,-0.0203225502273095,-0.0950658491245762,0.0881077532428176,-0.421008740886498,0.268059901212436,4.18525385554064
392,494,0.732363174966515,-2.11362733520451,0.973002290334358,-0.0585719639095576,-0.0511507227043115,0.130244028160123,-0.537578772639635,1.74385303712309,3.64312586903
393,495,0.731713779971377,-2.11338693019145,0.974342326960592,-0.0996484104205741,-0.0223189975991147,0.158978309326835,-0.554801990326898,1.4594302476982,2.52320356664144
394,496,0.730510192869434,-2.11357140679128,0.975810978119505,-0.12108218909692,-0.0107109233744079,0.166854361689521,-0.578931419029628,0.192443940358753,1.019141951007
395,497,0.729104460634343,-2.11377801081807,0.977334802480371,-0.122844731333039,-0.0134843954163917,0.160731354653115,-0.464852251451272,-1.06416833188567,-0.163265052758338
396,498,0.727797085108202,-2.11442059413466,0.978679466035589,-0.113917301210774,-0.032764397377148,0.145122002313523,0.197380222993169,-1.86357173872459,-0.905915395381147
397,499,0.726530928477,-2.11530452771213,0.979756719585625,-0.0947116609597871,-0.0580988185233227,0.121032001669323,0.506333548144674,-1.53473256219387,-1.58108032703321
398,500,0.725434040943026,-2.11621282884508,0.980468183976103,-0.0779127678306005,-0.0756995614090476,0.0903645051255235,0.576252638517433,-1.22207435895393,-2.0694117523332
399,501,0.724488953638542,-2.11696225635513,0.980145402082816,-0.070191160043884,-0.0857603502168442,0.0548530788872462,0.283047165981631,-0.98167183457457,-2.3549348210759
400,502,0.723528975207634,-2.11749346650781,0.979610263391535,-0.0741186503241746,-0.0889459071789094,0.0177852189741466,0.234070257361314,-0.879728235546048,-2.75312700127249
401,503,0.722288099423917,-2.11747314921213,0.978897455348617,-0.0856671884115067,-0.0754106329858789,-0.0130643094220724,0.641366121937107,-0.48971826854321,-2.55045893564593
402,504,0.720614158851685,-2.11667611060524,0.978200159440815,-0.101906228305486,-0.0469804169426696,-0.03330483399217,0.911760218027942,0.322671300111714,-1.95837790989765
403,505,0.7185661318413,-2.11534377608215,0.977538528335356,-0.121383166494611,-0.00674387065100444,-0.0559971587888484,0.0914553347355209,1.24715097500708,-2.22279721030925
404,506,0.716335224293528,-2.1138745661217,0.976954945142918,-0.138881839914704,0.0347270918806387,-0.0743589891260815,-0.609962071465345,1.71980613988007,-1.95772431917732
405,507,0.714214215774032,-2.11241485502066,0.976339671886853,-0.150332938060363,0.0718911416184834,-0.0846128645655284,-0.914443004558413,1.60106775852361,-1.28740040156258
406,508,0.712417982239521,-2.11101240169897,0.975709447928865,-0.149477495124831,0.101255691751455,-0.086172924872729,-0.321123568593273,1.56181488116106,-0.578010913474918
407,509,0.711095642978941,-2.10974490953403,0.975184019613826,-0.141643373928756,0.123287778615463,-0.0789280414031765,0.200022992022856,1.8327723990173,0.187109332936728
408,510,0.710184442631379,-2.10861140297516,0.974806729602489,-0.132755150811971,0.137061280026739,-0.0658391317235122,0.36684364401167,2.00955943195612,0.686754991236099
409,511,0.709555617394014,-2.10774584502102,0.974628739413439,-0.1325851259077,0.139639008421256,-0.0469861124800146,0.407087529295116,1.97632996632021,1.01921464951168
410,512,0.709051615791992,-2.10726144322859,0.97465918314096,-0.138719389202647,0.129848864493301,-0.0269248041931752,0.51434200170589,1.67257438128194,0.994444181263971
411,513,0.708571842750803,-2.10720609985457,0.974904573353255,-0.147784729623168,0.114320400600999,-0.0130369170795458,0.187868943476121,1.53586366906024,0.407267134989077
412,514,0.708047256632948,-2.10758460790839,0.975233034462147,-0.154871092403024,0.0965489022692607,-0.00565574996279894,0.0139092986683439,1.47362055439793,-0.114510577663271
413,515,0.70745048544702,-2.10822852593822,0.975526166364312,-0.153756052920896,0.0809652895522643,-0.00477760343165117,-0.275669933275923,1.19220881625771,-0.423311505623937
414,516,0.706868698830679,-2.10902226150227,0.975800808122775,-0.142820765070438,0.0668082363850059,-0.0071768821151912,-0.473043323169582,0.982706454283589,-0.522606397036248
415,517,0.706411244483826,-2.10999834964606,0.976035435422225,-0.125609658366232,0.0511345322742847,-0.00877447498858301,-0.37859319949569,0.888722493622413,-0.389677646827914
416,518,0.706023905226651,-2.11099307518391,0.976155053433644,-0.106829555039623,0.0351744381612477,-0.00888302033055184,0.00724510811488808,0.885395512714901,-0.165859330432814
417,519,0.705791754708895,-2.11204289445373,0.976290751465748,-0.0871769215023777,0.0202292944277825,-0.00870935957165413,0.275146054997059,0.728065899593024,-0.133562995991418
418,520,0.705694119323924,-2.11312166381586,0.976423793681525,-0.0692225080420881,0.00636800219738483,-0.00901994315964405,0.423356462058089,0.546301430562305,-0.188002777390277
419,521,0.705714552626685,-2.11422823277485,0.976533838682175,-0.0522999979425396,-0.00418633659793183,-0.0119547518310314,0.521167255941493,0.339964085150743,-0.408987655636181
420,522,0.70582785879831,-2.11529274306407,0.976587376099419,-0.0357558186990626,-0.00997884218114489,-0.0183559928351256,0.463680057869257,0.165953795513319,-0.689982004871716
421,523,0.706018774694401,-2.11627119961944,0.976554915771002,-0.0211088826694419,-0.0128813841773119,-0.0276422727556041,0.316948195577175,0.0514174630514377,-0.944776976745785
422,524,0.706250660819959,-2.11713526165188,0.97642103508944,-0.00964146432519482,-0.013953470002616,-0.038105369898321,0.233696154123157,0.0756203921020352,-1.07504634027778
423,525,0.706480621757967,-2.11787370102762,0.976188158389186,-0.00280182894386487,-0.0127849609478936,-0.0478264970864786,0.147866134413987,0.227713793100301,-1.03967200512751
424,526,0.706658823184923,-2.11845149908943,0.975866344082527,0.00108840466531873,-0.00823037230546049,-0.0575160157082114,0.0998039668525208,0.314503851304491,-1.04358191880767
425,527,0.706705354672738,-2.11888077183891,0.975472112432185,0.00010847776778312,-0.00267361698065303,-0.0658406852645155,-0.00212339275836193,0.440983745333535,-0.969863486026783
426,528,0.706681644258865,-2.11916258588087,0.975017721104448,-0.00216369576830793,0.00262989051563235,-0.0729301969437191,0.0751996495073861,0.557391069016348,-0.868438607862654
427,529,0.706478528350217,-2.11930884674346,0.974541031470598,-0.00759375136316765,0.0052401333624063,-0.0728791898413754,-0.0220683044977512,0.130354651374995,-0.217735571932333
428,530,0.706158561922515,-2.11929190275796,0.974080653366565,-0.0188863771574217,0.0128630822875997,-0.069590669214745,-0.878520034949891,0.511277581467952,-0.0245385933926786
429,531,0.705701125109764,-2.11915843571669,0.973705612215799,-0.0410801730971627,0.0110428950732754,-0.0682076019611626,-1.5353156270456,-0.0738916315557852,-0.280698387735994
430,532,0.70517973943431,-2.11901130756867,0.973315060008808,-0.0571778871899166,0.00498289132605845,-0.0604704622356119,-1.09822377771489,-0.320007735833327,0.558847878151659
431,533,0.704824494997805,-2.11886350077581,0.972953812023172,-0.0573238856785494,0.00636662557802528,-0.041155139266136,-0.769970728322092,0.223192554351088,1.81564980464755
432,534,0.70490311526673,-2.11860528878613,0.972674109936874,-0.0366725441662582,0.0104330571317425,-0.0117519162993807,-0.776397570587242,0.189519407410031,2.86159099128924
433,535,0.705530697497939,-2.11828709883161,0.97263097891472,-0.00719311659162938,0.00464902533069781,0.0225698214993108,-1.37463774420066,-0.377551623365294,3.46842031703557
434,536,0.706677289036826,-2.11806008822509,0.972880016884976,0.0208744559556882,-0.0188130596637809,0.053730228722148,-1.91952887306916,-0.808068025800714,3.50288265508448
435,537,0.708009522283281,-2.11824932766169,0.973425430114917,0.0478088643633567,-0.0659008893532606,0.0978493959709271,-0.6443055028463,-0.844736106182597,4.6488677779393
436,538,0.709247038099924,-2.1189059063333,0.974358722029456,0.0719111413757707,-0.118756569238614,0.147158971877907,1.27004112136903,-1.16623782146149,5.11255308320274
437,539,0.7104178048676,-2.11987618743595,0.975624931193508,0.0948140196746506,-0.155644128358821,0.178702956913925,1.67603843279929,-1.71779093222352,3.70080989223817
438,540,0.711549123397065,-2.12038663860253,0.977028428438228,0.110970645394712,-0.151470649773611,0.184874529739974,0.635580851502149,-1.8913739946691,1.56900086559302
439,541,0.71291813100777,-2.12115228286436,0.978426271198029,0.117283320352257,-0.124754583593528,0.172447297858847,-0.55740452666701,-1.65017004689615,-0.262666349266306
440,542,0.713874129883965,-2.1212120484107,0.979834197535703,0.100022463207159,-0.0769829478555644,0.156200132814267,-1.08952123801897,-1.06973573073233,-1.00985598326181
441,543,0.714629520901082,-2.12101138608061,0.981297308024269,0.0701138943762678,-0.0267953490009268,0.139960238106011,-0.933559270289124,-0.517139825717178,-1.32719338590073
442,544,0.714999554330784,-2.12048401027843,0.982809182785174,0.0369049962685157,0.0180880993281616,0.125348745208404,-0.431457577954884,0.230487474763111,-1.46483995833596
443,545,0.71522893616883,-2.11959937459148,0.984333683343695,0.0179281699605673,0.0625203713848996,0.106629998379299,-0.658339025402737,0.825875954110703,-1.80671218136683
444,546,0.71545783890334,-2.11830237490659,0.985761051611698,0.0216976928108665,0.10730559729118,0.0805649661823675,-1.13061818737382,0.785202645748715,-2.27140760512231
445,547,0.71571450592621,-2.11662559773281,0.987052030205496,0.035887002914917,0.143982786361167,0.0522205021207923,-0.927231739740937,0.496854300230202,-2.52656748973216
446,548,0.715981791863448,-2.11486393546782,0.988227510243378,0.0427163977873762,0.160704808349435,0.0286886091084911,-0.519868397200453,0.461546023909976,-2.42787329376455
447,549,0.716190199761403,-2.11336408238806,0.989313755888825,0.0365373873596616,0.154764682830341,0.0121384947173747,-0.145423942381827,0.601150349265484,-2.18050287988434
448,550,0.716223752956935,-2.11241451514797,0.988903746405283,0.0191844321603206,0.128015409395912,-0.000586465662712779,0.00345206435267959,0.770430554773967,-1.76821118974383
449,551,0.715937647929144,-2.11213256378794,0.98897865316437,-0.00377765646410713,0.0885143990879396,-0.00301319489884738,-0.034163827582899,1.10003446830212,-1.20902268431275
450,552,0.715508065876456,-2.11239406257632,0.988673254784134,-0.025370711879201,0.0443682241583582,0.000766072473577464,-0.124285968669906,1.37464232303091,-0.486300900046691
451,553,0.715264476553136,-2.11287930538494,0.98816490653635,-0.0285217094390671,0.00652822360727728,0.00304964080689174,0.0692274734207675,1.28330357136821,-0.0929232115243025
452,554,0.715304971971522,-2.11341084065807,0.987365189740376,-0.00968313251529472,-0.0220223467434487,-0.000190362299911199,0.462244531705349,0.675576791710155,0.0594340408348902
453,555,0.715665316227191,-2.11391481880232,0.986321070869495,0.0272331094162534,-0.0414877599315558,-0.00965986943363007,0.785627561354238,-0.23763547434006,0.0277143792640332
454,556,0.716267536068063,-2.114379798631,0.985140110501999,0.0638039976945789,-0.0543222858628156,-0.0185209928296485,1.12336938312967,-0.96750588142723,0.225953880583826
455,557,0.716895653523441,-2.11477168811582,0.983939988242468,0.0831253988570796,-0.0646054112571199,-0.0222023864634924,1.37163145446086,-1.37039235237559,0.487226468036157
456,558,0.717332580118966,-2.11506622194018,0.982799217259818,0.0816408064081247,-0.0705602814837739,-0.0227968135800886,1.43240965602066,-1.51006231412938,0.507075622635683
457,559,0.717486350707135,-2.11530839306541,0.981745989362923,0.0656943341180718,-0.0736216928422314,-0.0227655354855191,1.36069590338538,-1.19363879196318,0.348678732065015
458,560,0.717318758624184,-2.11555346551203,0.980781364557903,0.0403624583154257,-0.0749135007872205,-0.0220128116364996,1.29800812885909,-0.728729830535862,0.24481074183962
459,561,0.716826761275545,-2.11587498054512,0.97990081141009,0.0114277323849715,-0.0791182439643893,-0.0209772115242785,1.10641859518063,-0.179504554054878,0.168398973297208
460,562,0.716046360911144,-2.11625134368114,0.979083240682089,-0.0160529655035082,-0.0803182078809481,-0.0224128812615758,0.816446142765849,0.0491661695090627,-0.0291162365243669
461,563,0.715042251539056,-2.11666632450258,0.978294878120325,-0.038719461059868,-0.0779552614196067,-0.0275415427590169,0.647932466419446,0.198077018355554,-0.307916677173036
462,564,0.713928344328073,-2.11709401388763,0.977493349041595,-0.0533863823742949,-0.0720760853357738,-0.0375156834715091,0.42248109086269,0.212414927553759,-0.6516439601695
463,565,0.712776831172606,-2.11750389659205,0.976652515181393,-0.0617408165883426,-0.0640163563601246,-0.0507452130989554,0.173953859205584,0.0692574448233056,-0.924787501191462
464,566,0.711613384983384,-2.11789243656548,0.975760983200759,-0.0657576236186094,-0.0557961029553274,-0.0661835930765721,0.0259288364051126,-0.0287035246543834,-1.16868110392652
465,567,0.710470790526831,-2.11824143424672,0.974810512451259,-0.0639698444312569,-0.0474536937970013,-0.0828734001152405,0.0203711458661709,-0.141788018625997,-1.31276505407133
466,568,0.709368351523765,-2.11855183578229,0.973806295290125,-0.0607959639147638,-0.0401341417986699,-0.0993952795361811,0.0415777615931883,-0.202173799240417,-1.39919672071658
467,569,0.708348671278066,-2.11891818901456,0.972763230425554,-0.0554841325899118,-0.0368563045673533,-0.11553247329657,0.0205016421952436,-0.148138249202946,-1.45286566781319
468,570,0.707430661470016,-2.11934532117864,0.971692683324471,-0.0508246063510222,-0.0356721803589998,-0.129455285580691,-0.0787270192600154,-0.0931632786351116,-1.35219183291412
469,571,0.706620856451054,-2.11988251133062,0.970635357565271,-0.0466426168893434,-0.0402822397782056,-0.137013338969141,-0.0983266757877572,-0.235687063207495,-0.861588347881817
470,572,0.705942074684554,-2.12055158365191,0.969635166111602,-0.0430089135516052,-0.0526336906177524,-0.14485778369008,-0.0029916686594446,-0.488217179376314,-1.02884184021521
471,573,0.705308176152098,-2.12133923929635,0.968668199666376,-0.042280038075506,-0.0677010235566735,-0.145254628518397,-0.0958524721924842,-0.551166266116961,-0.448982429550644
472,574,0.704641199123728,-2.12222258063413,0.967898519197767,-0.044762623459632,-0.086145232620981,-0.140041213732978,-0.0583470621679908,-0.734951005205127,0.0164287000696764
473,575,0.703865026754132,-2.12322063256244,0.967296246991249,-0.048349431281205,-0.106200789715547,-0.120237523907578,0.4167901134605,-1.06076907823098,1.39517044329727
474,576,0.7030769339784,-2.12424514725837,0.966925692336696,-0.0501707556717546,-0.115513930440331,-0.0886200667364784,0.106061281740539,-1.03905353979953,2.25819037825169
475,577,0.702403005012897,-2.12525269359491,0.966789346010397,-0.0521711735151147,-0.111195466594754,-0.0591112265055793,-0.67468555771498,-0.440435500592354,2.20950047820955
476,578,0.701791638800401,-2.12613543448854,0.966805046622057,-0.0563360613724804,-0.108150715347115,-0.0410418452081818,-0.732907541416902,-0.965337842288041,1.43230667836693
477,579,0.701188310729908,-2.12690163527462,0.966910814771395,-0.0632338253891633,-0.107658883559839,-0.0204208070230886,-0.738458504770943,-1.55776309116963,1.7674778307135
478,580,0.700613439043635,-2.1276297754131,0.967148474211292,-0.0728530378842734,-0.0977763659670196,0.00642036759034972,-0.819958349840822,-0.744535682642468,2.32540749073237
479,581,0.70001285789399,-2.12826056934485,0.967593990458266,-0.0850551389986133,-0.0813563133981318,0.0407939937045657,-0.676060696318482,-0.40966389828385,3.09479034580941
480,582,0.699441476982618,-2.12863762107128,0.968412315462589,-0.0936132588631505,-0.0516132839620383,0.0707086426912073,-0.691378316072823,0.025108933915147,2.78096207168085
481,583,0.6983087719424,-2.12850629937197,0.969681445689074,-0.118727905551519,-0.0175645780608669,0.0976504365821056,-0.971612098423223,0.428276834177816,2.23240499811207
482,584,0.697229829358157,-2.12851755304719,0.970984926759595,-0.14430357902818,-0.00194264548330632,0.117053007446172,-1.02601637532579,0.131455015652916,1.72263652623803
483,585,0.695873470541698,-2.12864856153524,0.972322754925143,-0.152072949910683,-0.00284900569739116,0.126966009050544,-0.704387675620883,-0.622040884463379,1.05398405301524
484,586,0.694709048067558,-2.12900036292328,0.973569706210732,-0.143842953661579,-0.0206701551620786,0.128232140680209,-0.0704541069672968,-1.51029031120578,0.403575595819255
485,587,0.693772278558266,-2.12962428096835,0.97476230525414,-0.125645769092418,-0.0495342345096945,0.123726076790082,0.520355424358717,-1.88554337936385,-0.0895760320410421
486,588,0.693106519594471,-2.13047780147112,0.975756143420398,-0.102134187599511,-0.0783022962632628,0.11334534439056,0.708061646187342,-1.63639998236236,-0.426478540642013
487,589,0.69270288398171,-2.13141449251159,0.976545221860019,-0.0743249169720835,-0.0963430183116444,0.0973225896448827,0.515155274863357,-1.25729712193884,-0.760554829748284
488,590,0.692464874983996,-2.13226727365457,0.977117167029426,-0.0525440719678861,-0.102612756828945,0.0754319933409339,0.0955046854278963,-0.85272854868321,-1.30250311726238
489,591,0.692299241898371,-2.133047540616,0.977510902236183,-0.0427403898887885,-0.101959376176209,0.0512855629288314,0.0539963872485508,-0.801325376473696,-1.84423096589406
490,592,0.692144024889741,-2.13384354585206,0.977731068059968,-0.0408913354228686,-0.0973417721918607,0.0285595158010358,0.292910979970453,-0.793393769920053,-2.03147658348352
491,593,0.691591277704751,-2.13450075539248,0.977776758333074,-0.0487491905812563,-0.0841145360002993,0.00787675161248983,0.474507994530545,-0.053847412061816,-2.01356704324921
492,594,0.690367322231113,-2.134645683898,0.977828911731575,-0.0638055393697209,-0.0588401467205735,-0.0087202859527002,0.634500984331389,0.802408614045885,-1.83792251284335
493,595,0.68886958447055,-2.13426014683335,0.977741424526348,-0.083974589606486,-0.0305790447826285,-0.023105925123368,0.377496721082711,0.831409969428899,-1.73074778703289
494,596,0.686988961711943,-2.13356761051592,0.97781180398322,-0.0939339859463142,0.00754528598267864,-0.036581668033532,-0.0252354314651596,1.33223069512448,-1.60402903618207
495,597,0.685159963780191,-2.13264230610233,0.977787689555274,-0.103927547953252,0.0422394214276841,-0.0417690970593438,-0.70163873189008,1.18668916716334,-0.778345426990801
496,598,0.68333082766389,-2.13141475412655,0.977807823629811,-0.110907045600458,0.0736881102307952,-0.0418615054305437,-0.471767601402364,1.18030414719657,-0.379189657368441
497,599,0.681802906735183,-2.13011628855714,0.977866042214163,-0.112027555951818,0.0917458512023954,-0.0384984473353065,0.0261524680642404,0.94206371932106,-0.105791012648483
498,600,0.680465302571612,-2.12887383717199,0.977972284409541,-0.114450912627899,0.102830707056163,-0.0282808797494015,0.0967944355540936,1.16040260427106,0.496083971966556
499,601,0.679378346448814,-2.12789705289479,0.978161874518276,-0.123829466349016,0.100243981825064,-0.011521619664763,0.216542052903098,1.52037408154562,1.01340141032586
500,602,0.678390172868748,-2.12724497924568,0.978466954170447,-0.141245594025159,0.0894042451897299,0.00639205507625192,0.390645653731687,1.74491708853714,1.03711474388852
501,603,0.677498360350416,-2.12697227718798,0.978864872692225,-0.1572302537544,0.0753097539950181,0.0184544547952227,0.253410480240153,1.64686438639543,0.571030488498304
502,604,0.67672309079299,-2.12702198292618,0.979302883531335,-0.161387980404495,0.065433670657979,0.0228070892897091,0.0571710554158403,1.266412561457,0.0366384749268265
503,605,0.676120269963136,-2.12731993186426,0.979650108080868,-0.15076667538971,0.0585939117152404,0.0213884394753709,-0.211487808002623,0.92837253403032,-0.262214546784805
504,606,0.67577904382484,-2.12786611147207,0.979947599555315,-0.130911161685482,0.0516695844760915,0.018692762746342,-0.26998077315791,0.779532853996243,-0.293568655939977
505,607,0.675591368711766,-2.12851963582944,0.980183353536271,-0.109288686851121,0.0434483820561933,0.0177280401582325,-0.20878205466578,0.81686432581029,-0.10766273888253
506,608,0.675515639020326,-2.12922661143184,0.980411829104478,-0.0901590762448848,0.0341237917867616,0.0194746584189624,0.0436501532330148,0.808925932295065,0.131270021971602
507,609,0.675594550469825,-2.13002359583052,0.98065459141801,-0.0694904187793055,0.0234632194144915,0.0212627463860754,0.30366925787114,0.632740478017137,0.182077113427695
508,610,0.67576651461668,-2.13083295788457,0.980856569098323,-0.0496926637237048,0.0127155173868774,0.0212244615579194,0.512836439897591,0.424404834106147,0.0711293573721571
509,611,0.67610889480062,-2.13170655558744,0.980989797389811,-0.0293779587016982,0.00326917386434289,0.0177411724088288,0.627319480282267,0.185316691959523,-0.198094197607571
510,612,0.67650120857143,-2.13258607090081,0.981039194410504,-0.00924581087405137,-0.00297020556188915,0.0107985368793281,0.600187773752819,0.0711987878487724,-0.479714422212019
511,613,0.676978610166162,-2.13343104083826,0.980983449145368,0.00902627206753569,-0.00731426811979369,0.0010391765822237,0.526221789784525,0.0102117659984888,-0.731217912112669
512,614,0.677564380477212,-2.134034420831,0.980408007926072,0.0226421403716176,-0.0051898816037684,-0.010785631391042,0.350796263285174,-0.0315660097035228,-0.975059275200618
513,615,0.678052840290766,-2.13470365202573,0.980161504810506,0.0318133342398886,-0.00852844587016814,-0.0209566382069719,0.47610818095123,0.318569166312154,-0.830311143172094
514,616,0.678471456474896,-2.13511654165265,0.979804667632832,0.0346476330004614,0.00401636955398729,-0.0336145587230241,0.232245214988591,0.213109366784062,-0.943445291239576
515,617,0.678821979046052,-2.135302942546,0.979347864206538,0.0342398995489602,0.0157327526141811,-0.0452051232424694,0.0947093374235974,0.454587662564518,-0.916567150870177
516,618,0.679117529954719,-2.13530505429242,0.978819012873719,0.0324388608811904,0.0260663472834603,-0.0548533110966807,-0.00238935784717389,0.579146408119018,-0.849746841846467
517,619,0.679387149049293,-2.13518576518598,0.9782732032788,0.0306570084167306,0.032690051294546,-0.0577485788167298,0.0286485100969347,0.530747229821683,-0.363022867097933
518,620,0.679645661790215,-2.13492477124485,0.97779200762331,0.0264017784625988,0.0429539867630749,-0.0515526708144747,-0.626424788078411,0.938670852640749,0.305194102598323
519,621,0.679944736508133,-2.1345417947051,0.977398461785757,0.0218188550882791,0.0462458533297262,-0.0543356889749049,-1.01694069046297,0.452343010564725,-0.60653358589487
520,622,0.68021294981955,-2.13417127106391,0.97705935461959,0.0165422021671671,0.042126332123807,-0.0451002741450335,-0.469024542653844,0.415990577342852,0.796755756409507
521,623,0.680546913364451,-2.13384025618519,0.976638372135199,0.0155765317554547,0.0410364199843365,-0.0288993533428254,-0.504751046469312,0.556416529079642,1.65842625385868
522,624,0.681088355135443,-2.1334612871829,0.976412069277159,0.0288415476076065,0.0397255373763397,-0.00698955287761875,-0.43584696830563,0.126041831250365,2.20427064789536
523,625,0.68201586615887,-2.13307046228304,0.976234580056302,0.0462416485216179,0.0312966844450031,0.0220664276298797,-1.00513595680949,-0.37629307059178,2.978416574438
524,626,0.683254088875658,-2.13270563556867,0.9763508846549,0.0579498436751287,0.0122769645473224,0.0527163183267209,-1.60568865746311,-0.873569296094445,3.50690724177609
525,627,0.684676104515782,-2.13258475665547,0.976560335589287,0.0705979601612926,-0.0165627237798477,0.0953411499241272,-1.13783354090536,-0.551392961298478,4.7443938397113
526,628,0.686302835484603,-2.1326622904265,0.97704916199694,0.0988580704307201,-0.0497654730784739,0.141574516765821,1.04426797330576,-0.977856556582495,5.1320586585223
527,629,0.687897679579015,-2.13287088031902,0.977794014930114,0.133853549163988,-0.0718284807194929,0.16613195018823,1.97239425490931,-1.62507127761168,3.48208818292409
528,630,0.689503285248083,-2.1327472275959,0.978655231763823,0.153850002148598,-0.0679379559267386,0.166419157989284,0.449849794106359,-1.67780262585619,1.31216231358302
529,631,0.691119628560998,-2.13384149677126,0.97937352775715,0.156288839361218,-0.0680489830372217,0.150934078514442,-0.639820364054715,-1.77770150733422,-0.144074513204345
530,632,0.691928689654733,-2.13401478999326,0.979956442361288,0.134456170301632,-0.0541370499349244,0.133144796755179,-0.764174832905205,-1.5275284979023,-0.634542161572934
531,633,0.692431774857518,-2.13474341914058,0.980564251710595,0.0992891387546623,-0.0377654252384722,0.116971444864145,-0.834731117440815,-0.898350292525107,-0.778114645430939
532,634,0.692467797148001,-2.13528696179135,0.981401536924194,0.0592786813382068,-0.0189142248923172,0.1028591819027,-0.508962342397117,-0.191908351133329,-0.986703422976699
533,635,0.692563523835971,-2.13533145591255,0.982405791545493,0.0350433955843342,0.0110646735641574,0.0864453504250956,-0.590722646160385,0.478433018051747,-1.2289805948103
534,636,0.692909965144918,-2.13458659010917,0.98346279731962,0.034976430042017,0.0570269139049551,0.0657276485973008,-1.05707697282332,0.80177434022589,-1.52080434215998
535,637,0.693437678852449,-2.13274353242999,0.984544251671685,0.0479650636629261,0.110876708939389,0.046556564993601,-1.05954033750353,0.730370646524298,-1.53267946030996
536,638,0.694072531642965,-2.13013050743814,0.985641189640263,0.0579564099321924,0.153584482762262,0.0322803497338203,-0.272625160804916,0.53224425250428,-1.50475171908359
537,639,0.694920765691944,-2.1273343724449,0.986775965475206,0.0602069525850241,0.177345333164842,0.0230526949701596,0.281614244844963,0.75340155567457,-1.49939191424603
538,640,0.696407266623752,-2.1262995093221,0.987210227058889,0.0379082413733113,0.136297657396625,0.0161406745791178,0.394841622962359,1.07966202595383,-1.03747834554881
539,641,0.697084998819173,-2.12572607923653,0.986757066337965,0.0322865035458168,0.13384600800867,4.16105840937192e-05,-1.39889130637592,1.33353486221856,-1.6478223859572
540,642,0.697516067894154,-2.12569843986418,0.986341195399427,0.017436772061287,0.0697937396750011,0.0138781424227195,-0.495596375403646,1.89815024120694,-0.630431323925812
541,643,0.697822465551371,-2.1258954067135,0.985670681537286,0.010225345853932,0.0271220037399934,0.0159178108533778,-0.573207597196396,1.08052508980186,-0.717597487652271
542,644,0.69803153021411,-2.12606232869867,0.984969217135616,0.012726772126758,-0.00179195911195057,0.00923198938809626,-0.235555701992195,0.522038795934765,-0.729034900950766
543,645,0.698356746522911,-2.1261414867853,0.984159419535132,0.0330932001396177,-0.0196134855766276,-0.0059246980677822,-0.0360709434081966,-0.241063562974093,-0.774322102789648
544,646,0.69891216302801,-2.12615883673426,0.983250541981761,0.0645237501539584,-0.0308434528780643,-0.0241413200523246,0.429282069784247,-0.95054581603793,-0.758598715019863
545,647,0.699699156131912,-2.1261501845368,0.982291616574458,0.0957016090410342,-0.0394603482314479,-0.0388867062758076,0.840866883804139,-1.49869851466685,-0.496268476851539
546,648,0.700537393701074,-2.12621051575303,0.981379665862801,0.113754840594178,-0.0503695315670789,-0.044351970633237,1.31578751035417,-1.68382271149577,-0.0547418315765849
547,649,0.7013196977955,-2.1263514883055,0.980565760738663,0.115164897653795,-0.0608024475754415,-0.0438853054668122,1.52097424571079,-1.68881805062083,0.0989949402003424
548,650,0.701901749755667,-2.12659939369765,0.97988078712099,0.0981442190399392,-0.0699981467722222,-0.0368518508062127,1.60468457760795,-1.20411438309189,0.251752262998145
549,651,0.70218711516042,-2.12695887743644,0.979341201625718,0.0678584323212452,-0.0789307877985138,-0.0278878491556789,1.39613632238736,-0.665222010237787,0.135034953109065
550,652,0.702139655449661,-2.12741818776067,0.978929529900925,0.0320704779783104,-0.0856961156631632,-0.0196271355528176,1.16845705378074,-0.131906245936576,-0.055842947401148
551,653,0.701774199543364,-2.1279133453416,0.978603620560764,-0.000628792288538299,-0.0872289986556866,-0.0142679389676855,0.794058524596458,0.154696179782524,-0.18110122215981
552,654,0.701179357999724,-2.12840570901914,0.978313612726092,-0.0238633056195697,-0.0830320461960111,-0.01397799080451,0.485835712188059,0.33537699287058,-0.373924109393728
553,655,0.700495256020363,-2.1288325027953,0.977999911226015,-0.0341395682000858,-0.0729718077052938,-0.0215382117329499,0.185722714294789,0.239095119250066,-0.753189458261993
554,656,0.699803774428627,-2.1291894149357,0.977626056257331,-0.035409292015138,-0.0628929169396895,-0.0329569963357666,0.0952887471022922,0.168660373111604,-0.983938987926463
555,657,0.699168045204722,-2.12945619565675,0.977183410018765,-0.0307429834803868,-0.0529538686942177,-0.046597372847703,0.186850468504243,-0.0193153215271225,-1.15725249498187
556,658,0.698683848149339,-2.12965416263504,0.976667790749295,-0.0191189839223865,-0.0451127836822486,-0.0615836907282743,0.322235651485727,-0.101590145020996,-1.26285783599163
557,659,0.698440295991082,-2.12978922418417,0.976074879508816,-0.00139536728870038,-0.0388307330479288,-0.0778408048603607,0.327965493842527,-0.200353542949079,-1.36435292690408
558,660,0.698434871315372,-2.12989968685948,0.975408054744333,0.0172813160092401,-0.0356710401944031,-0.0933996211840752,0.306370330506796,-0.209710018930274,-1.38707161010836
559,661,0.698637478664815,-2.13002412595289,0.974678183081347,0.0351034965816214,-0.0350141612890248,-0.107327741598259,0.316002875868904,-0.225477374785753,-1.33458648051164
560,662,0.698995670039654,-2.13023647034977,0.973897792411749,0.0499133345900925,-0.038338143985862,-0.119264336669466,0.331938875717281,-0.136859971135369,-1.2729242092159
561,663,0.699391507370826,-2.13057879093042,0.973094672426442,0.0572823110098236,-0.0453161221334718,-0.12614849094246,0.260641974379217,-0.0865727711189762,-0.99818903036542
562,664,0.699758471029118,-2.13112066863914,0.972345186828656,0.0581356220300104,-0.0616893832615141,-0.123981243058419,0.246701435897618,-0.438974913385906,-0.317450339118693
563,665,0.700016381158178,-2.13186832333326,0.971661828977163,0.054352796924969,-0.082867229044482,-0.124731247404318,0.485779586929256,-0.730044859739674,-0.705286261837478
564,666,0.70010288113554,-2.13284978821374,0.970976367847816,0.0475438913706449,-0.103503284541783,-0.119172413715825,0.45772133075425,-0.818176019754654,0.125014792952981
565,667,0.70002130133872,-2.13402127946763,0.97038221867821,0.0354596347399776,-0.12482542794178,-0.0987356397606717,0.463329029533527,-1.1162923064074,1.36208906269925
566,668,0.699868645743412,-2.13537750128477,0.969979629954022,0.0273622740875894,-0.137444598217198,-0.0714276805403724,0.350193742172585,-0.636227205772556,2.03030634652276
567,669,0.699727624652,-2.13677162451436,0.969740088673303,0.019109503709619,-0.142745920047469,-0.0461410924551315,-0.154202994701904,-0.662382709035055,1.95284300601615
568,670,0.699710606118264,-2.13808125528829,0.969559788957748,0.0164739865685609,-0.145253072826472,-0.0307795755963158,-0.508184452266051,-1.71513091025399,1.50710925971171
569,671,0.699931670403822,-2.13939727236628,0.969505526697837,0.0178089431870654,-0.14305521511981,-0.0143890560155992,-0.496155700863746,-1.94674569648227,1.75277895586986
570,672,0.700436527946798,-2.14066264095345,0.96961937365599,0.0200151881093077,-0.130189024481691,0.00742467662981651,-0.783981589343092,-1.37477790060521,2.37724182923513
571,673,0.700951821045957,-2.1417799322929,0.969960746814026,0.015459748230697,-0.110412506464906,0.0421453127690423,-0.71567189310795,-0.954116558945193,3.42504649489463
572,674,0.701015159509906,-2.14288285997933,0.971076643853353,-0.0113493633152568,-0.0675419621436283,0.0797339504317939,-0.308728304225871,0.651788758114149,3.41929199328168
573,675,0.700629785405582,-2.14310451976124,0.971728147611097,-0.0319404577278048,-0.0514259178339665,0.0999008146262967,-1.61239216174997,0.956941998369355,2.45988506514643
574,676,0.699958529498145,-2.14361614761787,0.972539735842427,-0.0739185841222537,-0.0448840410889653,0.119246103424612,-0.38755145057926,0.0883832684420701,1.89321429699887
575,677,0.699262370750795,-2.14416825396187,0.973354508996868,-0.0818109985729972,-0.0515325409660006,0.114582862413822,-0.908637055952272,-0.867312319279488,0.763601986556575
576,678,0.698553920049242,-2.14451058774875,0.974182414941167,-0.0751147390599052,-0.0644961640362263,0.104345364295571,-0.38162865379248,-1.67406313199704,0.14817495232944
577,679,0.698167532566113,-2.14500116188822,0.97494675596022,-0.0585451323380864,-0.0829535382774642,0.0916453211598902,0.370171069075952,-1.85696944990186,-0.240150437345962
578,680,0.697691240394115,-2.14533938899519,0.97559103501916,-0.0389489164690371,-0.0920331701501723,0.0769291102412062,0.8028508953089,-1.2704169131706,-0.527903753175784
579,681,0.697636386501514,-2.14551896711488,0.975922745315352,-0.0138923579944908,-0.0845700681015996,0.0554779588265829,0.564657144183673,-0.455796614702799,-1.06845322195591
580,682,0.697553024001475,-2.1453331903042,0.976228965237737,-0.00128492128272753,-0.066709820363529,0.0340925165737074,0.139022366658525,-0.165517490879079,-1.50642918919052
581,683,0.697059218258122,-2.14470849609714,0.976451766242226,-0.0100406862055764,-0.0424252454196898,0.0140845135170399,0.163760296697441,-0.172237982055842,-1.87946998335893
582,684,0.696025809123218,-2.14358038835322,0.976585562887807,-0.0355971878280464,-0.0109982351404594,-0.0010488983367093,-0.0150447871404162,0.0554063036130515,-1.75227345955386
583,685,0.694809655818734,-2.14221980124997,0.97666489671605,-0.0626084241805392,0.0201767307304014,-0.0106509294716323,-0.168682625339874,0.735960294949654,-1.40688518135974
584,686,0.693544107889536,-2.14081667536461,0.97669042993717,-0.0854388793785279,0.0495891870517537,-0.0175333985235112,-0.267012386701984,1.48538305540679,-1.208915361515
585,687,0.692453979646864,-2.13965342070048,0.976660148181973,-0.0965902956442471,0.0743815534922375,-0.0211760360543696,-0.613900997744327,1.65589564961839,-0.772669174119415
586,688,0.691613029729592,-2.13860081193376,0.976579482103033,-0.0914948777578023,0.0973754055045625,-0.0225810107774512,-0.521594012665415,1.58307903124533,-0.316068649544761
587,689,0.691164968828178,-2.13759190320398,0.976495363014352,-0.0730620690453008,0.115881478391197,-0.0270265416620374,-0.261643675041712,1.24455942823116,-0.427677594986521
588,690,0.691234125197354,-2.13654971107086,0.97641269763845,-0.0464069429162926,0.130757440156615,-0.0295645281553075,-0.135085632999244,1.27592447781256,-0.0897693970280533
589,691,0.691655413727943,-2.13561666672109,0.976337837439563,-0.0305926728546186,0.134118725686244,-0.0226551020946011,0.00910746783197231,1.40583841467988,0.447571581986942
590,692,0.692234864439201,-2.13497302629901,0.976383521735338,-0.0301799359096566,0.123979923310596,-0.00736851236030746,0.171539607705423,1.44350687944254,0.785219544429365
591,693,0.692737439886943,-2.13473702432449,0.97659857309744,-0.0411240925965713,0.104651362193895,0.0100858756239351,0.450914243407154,1.50362952597695,0.645623014211876
592,694,0.69315704244521,-2.13493516118485,0.976965583992991,-0.0532729966692692,0.0830176669331088,0.0251638133001093,0.371330981541168,1.57917268934255,0.401988810177002
593,695,0.693508496133057,-2.13541848800787,0.977401688746807,-0.0543489726717142,0.0678364861813301,0.0305850721198636,0.104372307751479,1.40140751699596,-0.0975499901618713
594,696,0.693832647336646,-2.13606529459862,0.977833961121706,-0.0455718702507662,0.0556163140119045,0.0294120922051062,-0.210410473910508,1.27490138626223,-0.351172502861783
595,697,0.694118592225546,-2.13672233628322,0.978181029359292,-0.0332526159941334,0.0475418416677252,0.0247913620310381,-0.408001533738392,1.12784073655287,-0.45748560608765
596,698,0.69441257086026,-2.13740413877284,0.978465508505879,-0.0216055773159303,0.041670538656436,0.0192212259577793,-0.236001378677353,0.95737148089381,-0.533932922689689
597,699,0.694690562682393,-2.1379899789827,0.978710108840989,-0.0120822454082748,0.0389610951797677,0.0135883715933898,0.0674400917329787,0.770888567318447,-0.604535145074307
598,700,0.695047803012274,-2.13856962832818,0.978907434747307,-0.00197390044393254,0.0357255960268337,0.00763775938775604,0.307693157834166,0.41909538839578,-0.679503844430893
599,701,0.695469809899,-2.13911724560906,0.979026189547867,0.00783282705791465,0.0330943975585051,0.000516319980583683,0.379698580348996,0.105182740361679,-0.790012093969315
600,702,0.696002585220258,-2.13962429929699,0.979052154437046,0.0168094147341312,0.0288982924354827,-0.0083301076791595,0.406106742201478,0.132327549333886,-0.920132726889398
601,703,0.696434192118735,-2.14016242159678,0.97897860872902,0.0247624969851673,0.0220257211799927,-0.0172333607335176,0.47709326430537,-0.00500291666373998,-0.945458620663267
602,704,0.696882835135361,-2.14059228281908,0.978793970919279,0.0327728843592626,0.0193514392146348,-0.0288707885724721,0.413440744306059,0.223436467095109,-1.10399251984338
603,705,0.697251299351123,-2.14095056911569,0.9785177859197,0.0387524305234158,0.0187869888518049,-0.0392887878457662,0.411521324770513,0.214823875838284,-1.04247312459352
604,706,0.697559406535688,-2.14117838501461,0.978151229130423,0.0421264415389811,0.0213790340105443,-0.050704180116,0.316742687343252,0.387597451689943,-1.13433104087939
605,707,0.697818604921518,-2.14131002555319,0.977698029333668,0.0411750219495384,0.0240897283412767,-0.0605715798583867,0.285379113425334,0.471326427340677,-1.07929167404345
606,708,0.697906308491312,-2.1413289682612,0.977190495288262,0.0368807171463654,0.0280837675392318,-0.0695354846405069,0.189217617492227,0.5189036816686,-1.04728631894006
607,709,0.697859561935855,-2.14123808113161,0.976632875029608,0.0308510336077744,0.0326418605107625,-0.0768945821520463,0.158093334413251,0.587961279805854,-0.938699868403566
608,710,0.697697729490761,-2.14104691367784,0.976040847986187,0.0227385943501484,0.0374682156903563,-0.0827127798052087,0.0310371369865402,0.649360702020644,-0.827268252154307
609,711,0.697446001754938,-2.1407707159905,0.975429524639645,0.0144210363796507,0.0418186484046363,-0.0869106539858023,-0.0324563472808478,0.71337386310038,-0.697957328406798
610,712,0.697112689582472,-2.14042913560857,0.974814875108904,0.00438412495625384,0.0454359307582805,-0.0904366797858827,-0.0689650353584443,0.745574211207607,-0.676776213971335
611,713,0.696752224618159,-2.14004727434415,0.974195838617022,-0.0053742910043637,0.0475423429516032,-0.0943372800024127,-0.208160103373157,0.643657145457954,-0.696788747727355
612,714,0.696373414596663,-2.1396675185538,0.973577335126816,-0.015984480748847,0.0488994758764151,-0.0970680069113707,-0.241122095250914,0.7488957671828,-0.629691874027688
613,715,0.696038287655785,-2.1392910000934,0.97295756347418,-0.0234931817172444,0.0513057875956957,-0.0988540226287392,-0.313570498723764,0.763274892227274,-0.476137062136113
614,716,0.69577457176747,-2.13890532410276,0.972356831929425,-0.0271168194880394,0.0540687349523771,-0.0986581294837893,-0.300422772407908,0.687316963162076,-0.308786324204498
615,717,0.695593692915177,-2.13851696981376,0.971737524483229,-0.0237656456507993,0.0546399923917868,-0.0915282840317003,-0.0181216728233277,0.428125077310515,0.382981842753731
616,718,0.695489289042031,-2.13808468233723,0.971257153701445,-0.0202159182469863,0.0612153879778586,-0.0795239696209884,-0.432258144362229,0.577652471997625,0.820690646556453
617,719,0.695475630850406,-2.13755843440471,0.970850027608519,-0.0198300933999688,0.0667942739940118,-0.0687046265421369,-1.03701819948626,0.119398034790529,0.728556997367647
618,720,0.695549874614344,-2.13702676025885,0.970569734442818,-0.0200947250802607,0.0622942084468462,-0.0495244775253268,-0.672510190505812,-0.486246909802624,1.56505270697857
619,721,0.695682805898621,-2.13645198761768,0.970379939924329,-0.0124908244578603,0.0641128480394306,-0.0239067241185891,-0.38134012368754,-0.245176728126443,2.50120047162537
620,722,0.696081678553874,-2.13578890730661,0.970320256329801,0.00417911387116387,0.0657246860237215,0.00547112618792872,-0.549579048122429,-0.333105355389617,3.03629454338456
621,723,0.696834853562945,-2.13501005561129,0.97039764847495,0.0241107094954542,0.0644759665941282,0.0350066573320994,-0.921088726818494,-0.871577919592821,3.31996336244596
622,724,0.697972755997624,-2.13423040253275,0.970640902191412,0.0428214567546979,0.0540792627054967,0.0652318551390199,-1.13210151699556,-1.08670627964427,3.53358731258594
623,725,0.699488231327488,-2.1335246851114,0.971082844992435,0.0577632632806115,0.0337090666178638,0.0975585695281097,-0.918343086503747,-1.23670686674878,3.97147126109516
624,726,0.701110515918483,-2.13306817242137,0.971674176933732,0.0731373716203648,0.0106054615972106,0.134390355772409,-0.635021102154312,-0.859027299808164,4.46289395099336
625,727,0.702689177500217,-2.13279520705322,0.972525917489435,0.0903725328932388,-0.0112479786438123,0.174067124317428,0.259534562326091,-0.810385365161382,4.48785037414972
626,728,0.704214986325397,-2.13245187718657,0.973692052040228,0.107846139199047,-0.0221091132420241,0.201292126967959,0.859929702853244,-1.29307477858454,3.43442617842534
627,729,0.705404079262529,-2.13174783532919,0.975028833456541,0.118060391851698,-0.0109462683880862,0.2059004691894,0.415159103900139,-1.47959054723371,1.7617460280647
628,730,0.707841742446869,-2.13211309494601,0.97637888045221,0.136215374949272,0.0011950186198807,0.198138815304867,-0.330755273940302,-1.19605246134711,0.660941261499227
629,731,0.708955985363317,-2.1312645421084,0.9778036489653,0.129764542814272,0.0291171411981061,0.185465038258871,-0.67595245593458,-0.706302782567775,-0.0887696904620367
630,732,0.710334949374958,-2.13064747567922,0.979261747960188,0.115620489305713,0.0558900915510367,0.171321422498427,-0.60891949521437,-0.126983514438792,-0.648913611245167
631,733,0.711355077542019,-2.12968099532582,0.980715352731675,0.0958971338796628,0.0837594493124604,0.154237230148318,-0.495095027165533,0.417048572206097,-1.20226547671951
632,734,0.712269342427797,-2.12864773177659,0.982103619548172,0.0825586004431913,0.106900838482485,0.130733036737483,-0.527130109343189,0.671293596083336,-1.83519897658573
633,735,0.712877178671275,-2.12726209943514,0.983358926087364,0.0756453037034421,0.12878032620985,0.0991989981122864,-0.650316471726845,0.648877328941561,-2.47252737901506
634,736,0.713262745843963,-2.12562868982209,0.984427610630406,0.0711137601665503,0.142140913513485,0.0631251961563149,-0.416568418333301,0.420391076158839,-3.03241260168765
635,737,0.713394264274378,-2.12394097299729,0.985246168989363,0.0602481314572478,0.143846198295563,0.0316319579251544,-0.207859465172828,0.36867920059962,-3.15393813348274
636,738,0.713394835087838,-2.12246878181148,0.985952286652031,0.0415587456839185,0.133009246543423,0.00800742251933406,-0.107056865992084,0.51198309354371,-3.08074839284717
637,739,0.713356855407779,-2.1213412209042,0.986073987888575,0.0211533597969183,0.110228416232861,-0.0118807826220935,-0.0896542175977995,0.632083545167218,-2.85238627307088
638,740,0.713335444446879,-2.12086316243615,0.985799774694081,0.00840754429790064,0.0781205702791501,-0.0306826262708869,-0.254156933663569,0.55934914418223,-2.51436763816183
639,741,0.713916477381097,-2.12057121436621,0.985205035905116,0.0174019876161468,0.0495258123178485,-0.0494584990613866,-0.319058793737025,0.284291758485638,-2.01465157775958
640,742,0.714731453000867,-2.12042975790364,0.984015615932171,0.0390341710854164,0.0231116358471517,-0.0687096240340809,-0.922397083014581,-0.0411243849000635,-1.50240305046466
641,743,0.716144654513787,-2.12027816099734,0.982830797668911,0.079921502638813,0.00960185673254691,-0.085580608830231,-0.00293239401755081,-0.258611201709794,-0.693727079763915
642,744,0.717679326223852,-2.120116773955,0.98158000941199,0.111849874202596,0.000777358964678486,-0.0936817181514283,-0.278212954714117,-0.521183921285748,0.223470266896007
643,745,0.719126356521776,-2.120021873166,0.980459917952409,0.135127796512962,-0.0131780965355738,-0.0841753008826278,1.22609217600999,-0.749427567227033,1.1368521766225
644,746,0.720278211210228,-2.12014569593042,0.979628900872324,0.136317695032406,-0.0355302871802805,-0.0566353652520527,2.45130781227073,-0.915633185553095,1.78293477924566
645,747,0.721134406104205,-2.12040110261547,0.97905482272396,0.128988729830241,-0.0505056539525344,-0.0326231742278811,2.05639228498487,-1.15129725294665,1.64907113458177
646,748,0.721732529174147,-2.12069163510055,0.978598581785334,0.113964026502708,-0.0585972229098998,-0.0226428319422856,1.00076250337617,-1.56815723673209,0.714074709868584
647,749,0.721852812065746,-2.12108193282548,0.978181218726956,0.0777268057976793,-0.0685965627140958,-0.00867452076951022,0.994915841945674,-1.12329860646089,0.377578928832821
648,750,0.721506199675235,-2.12156337583554,0.977917602824388,0.0356054040102416,-0.0790908480959616,0.00615613264186223,1.22476009091108,-0.536527505142556,0.152722252407643
649,751,0.720868244102187,-2.12207830864904,0.977729187672559,0.00573068876717263,-0.0841254445581261,0.0119233707716982,1.10083633534523,-0.0556336835351378,-0.243690973092336
650,752,0.720213130527508,-2.12251367031165,0.977496475271233,-0.00419183457140937,-0.0771502004944519,0.00365580535742354,0.683019555165953,0.0286949684726229,-0.759577922328144
651,753,0.719640311257018,-2.12286023849509,0.977157318449374,-0.00331233213400221,-0.0647055960544141,-0.0115454266135814,0.431002448634151,0.124725296966771,-1.06833925928505
652,754,0.719191337658186,-2.12309965992898,0.976862166534249,0.000531742039825299,-0.0500552162014276,-0.0279293561106936,0.294455150272689,0.120190959381051,-1.21080580653423
653,755,0.718874041930903,-2.12321238608366,0.976446227887891,0.00548954808753901,-0.0353740581660949,-0.0459103872006415,0.173800938051841,-0.0583225478574275,-1.35180826761521
654,756,0.718680524684024,-2.12327315862354,0.975957382533101,0.00795790564737021,-0.0258231793503979,-0.0614544356504366,0.197052534213591,-0.122372483820132,-1.34909093904618
655,757,0.718575810294983,-2.12331185070599,0.97542541099444,0.00905435522961154,-0.0199777157698473,-0.0750242634597295,0.206950282501843,-0.0607734386169363,-1.35145682188624
656,758,0.718557837538897,-2.12335689433809,0.974867925645592,0.010686945794174,-0.0184824703811439,-0.0871195897399743,0.137561270488443,-0.172535099745871,-1.32225581953675
657,759,0.718641013122243,-2.12346738516094,0.974290405238914,0.0147949533729802,-0.0210125463338157,-0.0976335541963721,0.0527357549643707,-0.1846412225558,-1.22858066996805
658,760,0.718814085396483,-2.12369663431096,0.97371036716561,0.0190652547094565,-0.0278637069743344,-0.105132524960924,0.115455623355703,-0.142828027436399,-1.0960159813585
659,761,0.719034407069319,-2.12406887449618,0.9731401586874,0.0233942381130291,-0.0372430120070202,-0.110264683712921,0.191586480612534,-0.177061470111255,-0.983562901643676
660,762,0.719229801323385,-2.12461751899315,0.97260340560984,0.0249628854471292,-0.0516534798132165,-0.1114492416997,0.301221472270262,-0.165363033532791,-0.814501430534496
661,763,0.719286776261114,-2.12537446602391,0.972151270669925,0.0196926272260852,-0.0711075583494005,-0.103051473573252,0.0808421069541886,-0.29162444788857,-0.108397092481445
662,764,0.719200745314386,-2.12631397662558,0.971855867341062,0.0146133420907495,-0.0972447805071513,-0.0922203249309571,0.385404867674976,-0.951497171734185,0.115207056737178
663,765,0.718985103393186,-2.12747404816715,0.971614628852187,0.0111509268060426,-0.122464398769135,-0.0833851976296504,0.4285966421245,-1.13875110915025,0.119234312238813
664,766,0.718798441749663,-2.12885379329097,0.971441602360479,0.0117836319031817,-0.148036963891823,-0.0646241484520074,0.479073428187264,-1.61499678319898,1.45670400999326
665,767,0.718719480289492,-2.130403775066,0.971433696647888,0.0108546741478562,-0.168561540756225,-0.040321649026353,0.108661450926577,-1.61402432665527,1.94950812587251
666,768,0.718770418887199,-2.13202044309945,0.971562213043969,0.0094836532489808,-0.173343033548329,-0.0176784343551843,-0.740830399734941,-0.9178880274675,1.96529168475852
667,769,0.718826996508866,-2.13359306908629,0.971781839592563,0.0105456910686948,-0.174729656892733,-0.00602821261264377,-1.15332536391137,-1.66453948860944,1.41087224440886
668,770,0.718796520127999,-2.13512977639183,0.972024375228603,0.00636750403910873,-0.179148260688754,0.00949937326310432,-1.18061278835589,-2.3011491152758,1.95928249745019
669,771,0.718717082790616,-2.13658447706577,0.972384285044508,0.00197947961916351,-0.179417988160203,0.0405808894540261,-1.11878015672504,-2.84817297503964,3.72968003726646
670,772,0.718592112723405,-2.13795100761851,0.973025524430118,-0.00562825465376128,-0.155903593341798,0.0846111053121648,-0.648766916462029,-1.31069785454357,4.50103179049524
671,773,0.718538760000418,-2.13877554681661,0.973693400176159,-0.0282683296902359,-0.108598713250599,0.122103404624481,-0.482310675833129,0.986489326125969,3.73571428897353
672,774,0.718013978213991,-2.13901970907331,0.974915562588142,-0.0660721854129828,-0.066505981124333,0.15420826929338,-0.191040220310225,1.36550215759663,2.73361911236946
673,775,0.717623126075449,-2.13882738342805,0.976280453177117,-0.0846753229704155,-0.028322880849733,0.161150377532375,-0.126805571656547,0.82929218525322,0.849691595772558
674,776,0.716800019107518,-2.13873099707458,0.977562985138799,-0.0921459087111476,-0.00908171139969409,0.151276803441015,-0.205629487987845,-0.084983799090477,-0.504962433049175
675,777,0.715904855686968,-2.13875490718073,0.978647829215241,-0.0898435132028608,-0.0105449448632291,0.132327002729892,0.102726901403515,-1.04411910117188,-1.27206842647732
676,778,0.714878497419585,-2.13890161971194,0.979451929894744,-0.0789772771517147,-0.0214118429054334,0.106867985118499,0.528740894440958,-1.0749428933162,-1.65550083008035
677,779,0.714059193245631,-2.13912794894327,0.978848012268782,-0.0649570734963146,-0.0286198296062516,0.0683392278160232,-0.162874382154945,-1.03173104115232,-2.17993824894578
678,780,0.713193241199148,-2.13910337935853,0.978280841998001,-0.0524082490916423,-0.0276111183151319,0.02769998738054,-0.616890673823743,-0.353098167257577,-2.48231837504368
679,781,0.711702657944087,-2.13851198646021,0.977696327708602,-0.0636215474483443,-0.0200424648199602,-0.00328625147729086,-0.3538276663567,0.194432700921711,-2.42988686685965
680,782,0.709361956936011,-2.13731333269432,0.977164142306229,-0.0963810331324812,-0.00813388125052818,-0.0221894385298985,0.0527476790480133,0.588107360152372,-2.01391644262772
681,783,0.706770744926431,-2.13451708718742,0.977538898643668,-0.107675498495842,-6.92982527857023e-05,-0.0284504457757268,0.111941218901955,1.87085448807027,-0.695369915531301
682,784,0.704296015503536,-2.13279361187921,0.977516809037772,-0.123451593546726,0.0267416706856833,-0.0376884013559974,0.211818993703314,1.55426829227357,-0.691195851324983
683,785,0.70204161634082,-2.13135608825081,0.977409413063314,-0.132351794322405,0.0452671688485104,-0.0492868690011843,0.0200639005043367,1.44719688625905,-0.927264529897311
684,786,0.700315048793219,-2.13064776063472,0.976867547821533,-0.146001239047183,0.0789550590295253,-0.0455037311377728,0.00440224116243442,0.987620900088712,-1.34138074169574
685,787,0.699363559612103,-2.130204357206,0.976421642997047,-0.138390922563856,0.0898442413587078,-0.0215615357144026,-0.147094485239567,2.2825458827593,0.49096205879303
686,788,0.696828179133139,-2.12860078114786,0.97568515356601,-0.167395569121962,0.111182042567801,-0.00831478295688364,0.626526666790326,1.85170566812877,1.02467631031876
687,789,0.694510290693456,-2.12739320230312,0.975136560939334,-0.187886759694937,0.131012124602375,-0.0119809815424982,0.156511017280302,1.47062638253725,0.37943946564581
