,Frame,CoM pos x,CoM pos y,CoM pos z,CoM vel x,CoM vel y,CoM vel z,CoM acc x,CoM acc y,CoM acc z
0,270,12.4340754921004,-0.741723268752334,0.943594030957418,-0.0301861236540408,0.00811522290257033,0.0138419877044132,-0.0952647571913438,0.350728994478406,-0.205685065142937
1,271,12.4337505161512,-0.741651679335602,0.943732770381318,-0.0292091043266621,0.00947146366836564,0.0124107150483311,-0.0663957042902362,0.334237159208919,-0.199229288205109
2,272,12.4334188455229,-0.741568637294814,0.943870340627402,-0.0296214654345245,0.0119200619923282,0.0106830237770297,0.0315820293754692,0.309727882266623,-0.183581166670613
3,273,12.4330610748374,-0.741483069966021,0.944003496490528,-0.0319353015294656,0.0139599175654799,0.00877957772355615,0.0196250256289773,0.264213910163622,-0.192877316863397
4,274,12.4327066304553,-0.741403418858302,0.944136902953628,-0.0322952082716496,0.01515745572065,0.00809781475716774,-0.0381915712691008,0.299056316690991,-0.140042432976987
5,275,12.4323427411,-0.741350956450382,0.944271665677025,-0.032886564562541,0.0159971571006106,0.00773544029766062,-0.0599737935361787,0.290443526989286,-0.106393613741236
6,276,12.4319816316169,-0.741300814324368,0.944409460196722,-0.0333561108562584,0.0165956773440773,0.00756168339421907,-0.0767332007484141,0.282276545549678,-0.0913668987578948
7,277,12.4316274666315,-0.741245617659948,0.944548798068364,-0.0329985753881909,0.0175056912280697,0.00761966838011041,-0.044023895511427,0.26079225727755,-0.068064484547401
8,278,12.4312871856327,-0.741172216817295,0.944688900615199,-0.0315760284276515,0.0187721580456509,0.00789568404854044,-0.0356821060313922,0.285607600915139,-0.0475758270849842
9,279,12.4309656942349,-0.741065909521607,0.944827233819559,-0.0302058677639445,0.0202578769041937,0.00757855659292968,-0.0917586857736377,0.27039525342786,-0.0941989860044757
10,280,12.4306681995035,-0.740905723570703,0.944955332530009,-0.0276534995218181,0.0227908486663569,0.0067140169673718,-0.00976208606313778,0.230092764631486,-0.129971759355497
11,281,12.4304149359841,-0.740696032671168,0.945071394310329,-0.0249995755824952,0.024987788073931,0.00560669956864986,-0.0237362039837718,0.196905492434978,-0.170505004365889
12,282,12.4301993108477,-0.74045555591715,0.945174123715808,-0.0220489390968834,0.0257506021904861,0.00435023660338159,0.0220998494077319,0.118193553624158,-0.193816541339708
13,283,12.4300367218976,-0.740218066227395,0.945265227297893,-0.0178340751604788,0.024616574303455,0.00328032959970763,0.0638153812422679,0.011363308820377,-0.19976222107177
14,284,12.4299256307292,-0.740002178225279,0.94535199486428,-0.0134516595453497,0.0228437238561844,0.00328725476927754,0.0274427304532128,0.0240284147528577,-0.118953163872562
15,285,12.4298755755085,-0.739812678736374,0.945441120581881,-0.00993563652369102,0.0209330145523344,0.00334115103551981,-0.0545990014286216,0.0364268180779367,-0.107931759836237
16,286,12.4298606137785,-0.739651530047386,0.945531691187614,-0.00608719620862544,0.0199518001045553,0.00323721295289297,-0.0893230230517254,0.0317525995125851,-0.0917005285797738
17,287,12.4298765426138,-0.739517617698311,0.945628663042901,-0.00305459567396003,0.0188294833352718,0.00357401987209398,-0.090629484989082,0.137799120905921,-0.0668315792590601
18,288,12.4299063590479,-0.739408396861389,0.945733697028472,-0.000265113256788573,0.0180347846099996,0.0043060955193919,-0.0100743049382234,0.184226248648134,-0.0190730801190186
19,289,12.4299512628435,-0.739308234350215,0.945847214431879,0.00155917053792135,0.0176136162228401,0.00540473475816114,-0.0143051313292502,0.17372494391543,0.0379658255415584
20,290,12.4299915915192,-0.739203101497463,0.945963219070503,0.00137352113196406,0.0180258410896702,0.00539671045745127,-0.0580761919149048,0.130785512908042,-0.0100108609179056
21,291,12.430014524525,-0.739086283075515,0.946076813435458,0.000623704745759739,0.0185519346244387,0.00521732659098492,-0.0368732736314501,0.132970587930128,-0.0178019880861244
22,292,12.4300262402653,-0.738956914374751,0.946192570092407,0.000725976463286955,0.0187517048225328,0.0062029272619396,-0.0100705295657879,0.117471633423165,0.0600929528002663
23,293,12.4300150952518,-0.738832388321031,0.946315596298256,4.22943256798532e-05,0.0176035386228833,0.00730021539100375,0.101943832891569,0.139666445259171,0.0591494601688749
24,294,12.4299674815059,-0.738664623217854,0.946433226149225,-0.00194614473963536,0.0193652068742989,0.00735541653425099,0.0801967931836867,0.0232782924471466,0.0443953575457345
25,295,12.4298796327503,-0.738419292514999,0.946541878041189,-0.00438356528966424,0.022625251490698,0.00775179783010537,0.137883372579778,0.0802483230635849,0.0825994686890229
26,296,12.4297548672356,-0.738092452892049,0.946648652296268,-0.00717845906271518,0.027376290512468,0.00871742003284251,0.103548058715515,0.102718106307418,0.141981618318091
27,297,12.4295598577725,-0.737687747811295,0.946750238626182,-0.0107005525111111,0.0332582726524114,0.00945554599404716,0.089787324613029,0.0956758071962783,0.17094056228652
28,298,12.4293206017675,-0.737224385107292,0.946856430236919,-0.0137129037305168,0.0370975513821744,0.0120468059546248,0.108930048078326,0.0893678182749945,0.30798296792872
29,299,12.4290292623009,-0.736724623269264,0.946979379865136,-0.017053271090531,0.0409151224891899,0.0153261074223074,0.0978551233841418,0.041717953596928,0.39348977648612
30,300,12.4286212221629,-0.736227211793151,0.947117439392398,-0.0232545446135236,0.0432385123785743,0.0183180361256958,0.0826918278682351,-0.00418044971367033,0.400800328922038
31,301,12.4281298273757,-0.735700858715862,0.947268023773579,-0.0299288725890683,0.0464377131862576,0.0206719291961641,-0.0199595433234225,0.0349441622512064,0.352249219320108
32,302,12.427506538177,-0.735152156590064,0.947419224304831,-0.0397887207332464,0.0491319754251024,0.0219981981577182,-0.0896620882714974,-0.0568496278464026,0.301383095974418
33,303,12.4268094502208,-0.734579380289053,0.9475728190887,-0.04640250191595,0.05034917272087,0.0238059371726813,-0.190400312791746,-0.0491408784744929,0.295511512579184
34,304,12.4260472748193,-0.733954433439683,0.94772361493204,-0.0536584363928073,0.0522865864102585,0.0244875026080007,-0.192019059729928,-0.113084520361995,0.232961689907939
35,305,12.4252517072728,-0.733284501741776,0.947866702740526,-0.0607264301618068,0.0543810000320434,0.0234053135612782,-0.177116255362227,-0.147226397732671,0.0797534574843103
36,306,12.4244119800643,-0.732579980120182,0.947989369825866,-0.0682275176144995,0.056073179539612,0.0213832335540133,-0.17553316605904,-0.220334309775539,-0.00512371147098629
37,307,12.4235937602466,-0.731872566534059,0.948094678896031,-0.0728761366550891,0.0568601752629439,0.019142479028526,-0.202489294095312,-0.215153353922905,-0.0713547810709119
38,308,12.4227897760151,-0.731196596109099,0.948189333122978,-0.0750126409523787,0.0556305559601415,0.017549168397039,-0.156081526239602,-0.242448918566801,-0.0616919915894556
39,309,12.4220092181184,-0.730525923586994,0.948268559596484,-0.0771630761965219,0.0546083390442806,0.0148382960841572,-0.18516442313196,-0.204794766986755,-0.157357531959325
40,310,12.4212881714803,-0.729879262659567,0.948336020381615,-0.0760826541305871,0.0536406809632849,0.0122187005859371,-0.146842105756546,-0.167881173690145,-0.203155765624754
41,311,12.4206209850916,-0.729263519693629,0.94839272206418,-0.0728095359482819,0.0526614403363748,0.0102217487580394,-0.0934797451887835,-0.120448673921609,-0.175725412575369
42,312,12.4200176696227,-0.728684435280186,0.948441120139429,-0.0694853000520568,0.0520970664426402,0.00769775304826157,-0.112088769510508,-0.0645303626068103,-0.229896910282256
43,313,12.419469484291,-0.728142894824854,0.948478901520838,-0.0646933973608018,0.0520278802882177,0.00499899508031615,-0.104328955246821,0.00841672338675989,-0.259157663194575
44,314,12.4189921860969,-0.727646339258929,0.948515037715709,-0.0589214223986269,0.0502035445958777,0.0036909978459719,-0.0637520001014037,0.0959663260710846,-0.199054224623008
45,315,12.4185759809559,-0.7271849056389,0.948552220371493,-0.0534476947369676,0.0482148240940357,0.00176693889252215,-0.0294141340743617,0.0591632367914306,-0.244216372419985
46,316,12.4182070302351,-0.726753850583035,0.948588605317551,-0.049083579018039,0.046844809228272,9.26824861675036e-05,-0.0963075294063538,0.0993613226860138,-0.232002654295541
47,317,12.4178999905132,-0.726362310644001,0.948627211400833,-0.044807183529377,0.0445633405308249,-0.0015242014422558,-0.16038489334339,0.074181123078242,-0.259228160347513
48,318,12.4176559077695,-0.726017030231404,0.948663543093108,-0.0400133734258013,0.0425662379048057,-0.00287848190653465,-0.108265441833257,0.0179809190397511,-0.221607954062759
49,319,12.4174746312243,-0.72573839122009,0.948699322449442,-0.035363175250683,0.0391826441140902,-0.00474954881788045,0.00176033010680047,0.0929883120219447,-0.289355263199626
50,320,12.4173558373914,-0.725546552541367,0.948739374281129,-0.029896877307484,0.0330242441741409,-0.00484647028777386,-0.019684905546984,0.00929980852742045,-0.174082035663375
51,321,12.4172867962482,-0.725394221866355,0.948784100858237,-0.0252168274016462,0.0303058196978515,-0.00490687733556754,0.0106837695841499,-0.0349942218341973,-0.0949395422608657
52,322,12.4172362209766,-0.72527946536509,0.948836692528366,-0.0219711091099966,0.0275331027457835,-0.0045711942605452,-0.0223944370592114,-0.0658199556176747,-0.0498618140568176
53,323,12.4172016877678,-0.72518988172058,0.948901981815688,-0.0176243656837085,0.0260488013058224,-0.00340726994231954,0.000243225561728243,0.00868640741572669,0.0192883842966028
54,324,12.4171647549536,-0.725087506181603,0.948974483101715,-0.0143914361438564,0.0267986690725474,-0.00304001140823511,0.124345964014015,-0.0252798937865904,0.000124270561631886
55,325,12.41711054348,-0.724977729153654,0.949051217441183,-0.0126415743974608,0.0265726745627617,-0.00222563330629532,0.202265421142011,0.00429065465221611,0.0294906081796022
56,326,12.4170437878156,-0.724881077406164,0.949141162977104,-0.0108298500533762,0.0242999168052634,0.000462116646815348,0.0461433092583538,0.0145931129584674,0.152489380459899
57,327,12.4169244812118,-0.724801123812497,0.949245788991203,-0.0117540788019815,0.0210365946244808,0.00277534668878336,0.0757050058122491,-0.0720504159560506,0.164671518404264
58,328,12.4167558975362,-0.724743452090792,0.949364662682925,-0.0130916014104381,0.0170608799408695,0.00535555571473218,0.0292933724957934,-0.0658227641902077,0.174848366637837
59,329,12.4165361863415,-0.724700631989648,0.949492046234561,-0.0153761719117101,0.0136570814708658,0.00682030531494655,0.00187829795947526,-0.0677339795870882,0.0989179988734824
60,330,12.4162694977332,-0.724664629639542,0.949622298615151,-0.0180545538481379,0.010660294963249,0.00808649327264524,-0.0148742947807505,-0.0520232144968067,0.0792519497935204
61,331,12.4159390311646,-0.724637978386599,0.949750657100067,-0.0227040255068507,0.00772454945982671,0.0082281782084567,0.0306964890623813,-0.0533935345654217,-0.00338476826488644
62,332,12.41556025059,-0.724628542727826,0.949878230429804,-0.0258159801265203,0.00577941557186073,0.00889956427787581,-0.047790124358284,-0.00480145321275273,0.0306859963107048
63,333,12.4151190557462,-0.724649566740969,0.950011610066849,-0.0306738482019656,0.00214106701613092,0.00973294654089441,-0.0372864269346557,0.0198957641523291,0.0264171441969479
64,334,12.4146164919503,-0.72468743887621,0.950145495043555,-0.0355692680877404,-0.000162836163163538,0.00992578079230357,0.0382546972276248,-0.0314973497022148,0.00172514755978328
65,335,12.4140582830217,-0.724709464909262,0.950274991097953,-0.0416757145075609,-0.00108958723727416,0.0105327632234947,0.0266944831949373,-0.100138678308883,0.0676314400783473
66,336,12.4134413564275,-0.724699695808384,0.950396496551552,-0.0488289259507193,0.000282492300418014,0.0104217175329696,-0.0508239725868996,-0.198266870309431,0.0614501797708995
67,337,12.4127591472176,-0.724656072341116,0.950512867117672,-0.0551865989136179,0.00263691501808592,0.0113178870536855,-0.0649863051688509,-0.139399141210106,0.151154911830699
68,338,12.412004527564,-0.724593516278902,0.950628361360911,-0.0617532336151146,0.00441710973304354,0.012268571201122,-0.123519618569254,-0.111973521831837,0.155313190347054
69,339,12.4111497065873,-0.724508524539686,0.950734921836313,-0.0706403009038945,0.00607989310978961,0.0123216690560862,-0.0833783250983038,-0.17175741590863,0.113814879731358
70,340,12.4102124852124,-0.724416233960293,0.950834358249977,-0.0782133748040537,0.00670368376196618,0.0135670483783303,-0.118690512231321,-0.149819738146996,0.193508339682071
71,341,12.4091677512849,-0.724289488905668,0.950924170804255,-0.0879834886013418,0.00760972651669027,0.0143908641045626,-0.0992277767550317,-0.169247255169361,0.206162227821267
72,342,12.4080205031061,-0.72410561991878,0.951001348149578,-0.0975994738636421,0.0103536489646433,0.0151525326162067,-0.17914511219225,-0.248550164178999,0.240283208531842
73,343,12.4067825202552,-0.723878098249484,0.951072289211849,-0.105483912471612,0.0134032237180644,0.0163298295255574,-0.190371786174934,-0.198314264076163,0.273802923582054
74,344,12.4054415229767,-0.723607297575175,0.951134939891441,-0.114160148726697,0.0162586883907292,0.0166462777805629,-0.235858056664382,-0.212721233151569,0.205616952872123
75,345,12.4040162193431,-0.723274350445597,0.951178394792276,-0.121855141706857,0.0188008880848741,0.0165460912129801,-0.298484618948195,-0.19439327776361,0.167357619484931
76,346,12.4025368424066,-0.722899117601966,0.951206174318612,-0.128421908879572,0.0218715482942911,0.0162346588650496,-0.289189339066968,-0.196894528135589,0.157118433805157
77,347,12.4010157178575,-0.722524168653455,0.951228044472441,-0.135092078592324,0.0218524056341209,0.0158105471629603,-0.331343447698462,-0.248235515391942,0.108332479999449
78,348,12.3994601355481,-0.722158303725487,0.951242552898299,-0.140164990531094,0.0221427525997412,0.0148439410876802,-0.337773476570415,-0.22300718642872,0.0524969246567484
79,349,12.3978781130598,-0.721806733396117,0.95124741503129,-0.145843864568789,0.0212790751869338,0.0135864859964223,-0.426736822072986,-0.197114043215934,0.0117469423957194
80,350,12.3962619464608,-0.721488070188128,0.951241751372121,-0.152590594796811,0.0195156471512501,0.0113865751002891,-0.41036764238874,-0.194610507289357,-0.0708207448221895
81,351,12.3946326211685,-0.721193371642741,0.951223356861146,-0.159816747013287,0.0168553749620086,0.00832334028520918,-0.454187700527802,-0.274500172515306,-0.157048675919503
82,352,12.3930246826622,-0.720937849141214,0.951194689454577,-0.165053565999515,0.01308416542669,0.0057779955958385,-0.459086270896857,-0.338091537733471,-0.161762242497584
83,353,12.3914608265499,-0.720734127696196,0.951158234828779,-0.168571363411459,0.00925214823594526,0.0038976760060614,-0.47544931466799,-0.328401765240969,-0.124162641458881
84,354,12.3899545070869,-0.720593542201665,0.951119973301809,-0.170591812991234,0.00561991999593848,0.00269496499406655,-0.519904851949057,-0.269719524472121,-0.0803714097552075
85,355,12.388505390425,-0.720511441561147,0.951084011398823,-0.1706647241516,0.0025625557990922,0.00215200821432913,-0.514090267236753,-0.199367270751059,-0.028258340152264
86,356,12.3870949705688,-0.720470309614358,0.951045242048601,-0.172070650673074,-5.62638358470426e-06,0.000706237888504421,-0.598449172301498,-0.223698628351229,-0.0707756548430494
87,357,12.3856932281855,-0.720457067779675,0.950997322727657,-0.172853143038624,-0.00127321570371271,-0.00086460624038524,-0.565150375561517,-0.270822979393489,-0.0587623593766682
88,358,12.3842747435493,-0.72048255583315,0.950944210027267,-0.173438956466143,-0.00244234380720576,-0.00228938165294018,-0.521510848344473,-0.248458126799051,-0.0558218230017817
89,359,12.3828062101514,-0.720556198321019,0.95088454227349,-0.174410804107247,-0.00438317082676686,-0.00383213146305506,-0.474975640818385,-0.187460599279464,-0.0921541734268786
90,360,12.3812916678878,-0.72065517325868,0.9508104735528,-0.175917894735334,-0.00635875329086301,-0.00612965765293893,-0.482163196532873,-0.165885325907203,-0.17811519895339
91,361,12.3797286861273,-0.720790422952199,0.950716888012983,-0.177321511731814,-0.00990016914833137,-0.00801457588821038,-0.524949095719403,-0.167347042770716,-0.190400713515707
92,362,12.3781031959872,-0.720955978648228,0.95060376170215,-0.179922272220601,-0.0134899474986065,-0.00962266979370825,-0.573321260151116,-0.168177169700281,-0.159531829176895
93,363,12.3764074710788,-0.721149960476583,0.950481047096093,-0.182166902113768,-0.0169193800143801,-0.010250819512288,-0.544594004784536,-0.100783238000808,-0.0880439728413639
94,364,12.3746420939053,-0.721363605417867,0.950352710321617,-0.185714680539302,-0.0194534937619661,-0.0110661702515539,-0.579906311076735,-0.113794037821371,-0.0933432986914555
95,365,12.3728443370188,-0.721569982823594,0.950219065102421,-0.189062554120159,-0.0215818090945759,-0.0104261835847187,-0.569538829041478,-0.0489373109001866,0.024147314031247
96,366,12.3710159559821,-0.721779165285075,0.950081952150582,-0.193495697951406,-0.0227453200538564,-0.0103666219031556,-0.537119312943022,-0.0997700992242178,0.0160877527874151
97,367,12.3691697345877,-0.721996281208577,0.94994330797253,-0.196269510618909,-0.0223268523008124,-0.00900400426713304,-0.563526216096862,-0.127491788181367,0.144470937463085
98,368,12.3672871382798,-0.722239791217043,0.949804115670224,-0.199908960153776,-0.0223305513096489,-0.00790837157730443,-0.509611873228113,-0.0670605489009156,0.155480035418914
99,369,12.3653831028668,-0.722489758106787,0.949661487986827,-0.203054158585757,-0.0221954633956718,-0.00762162352548409,-0.503479936664422,-0.0772951071081893,0.101534413365342
100,370,12.3634478722177,-0.722726973439515,0.949504126316637,-0.206323798982171,-0.0225836366648435,-0.00862419712317812,-0.486061003229203,-0.0764359457101886,-0.00398399197642815
101,371,12.3615054153306,-0.722968478560406,0.949333767783065,-0.207329420276041,-0.0238201779004552,-0.00961332385966838,-0.520677555326975,-0.0458355086174175,-0.0595095798547707
102,372,12.3595235447047,-0.723218273922884,0.949153309655637,-0.20890444442422,-0.0254369086162889,-0.00969089452792487,-0.532317252978417,0.00581877189647613,0.00292454074128516
103,373,12.3574863219178,-0.723489558923543,0.948965681531045,-0.211695439054793,-0.0277928476162134,-0.00998502093936828,-0.526831107296316,-0.074146134168713,0.0032325863597091
104,374,12.3553677925744,-0.723817706029051,0.948777787201044,-0.215531772343049,-0.0316207456267653,-0.00901441532488227,-0.526984202020394,-0.0369279000165834,0.0914100938950635
105,375,12.3531394366777,-0.724211333104405,0.948606738920646,-0.219783490131145,-0.0348805192006604,-0.00785468940351759,-0.672921600685249,-0.01835490784997,0.0949413569487274
106,376,12.3508624702851,-0.724618203593075,0.948424424029503,-0.225704176803801,-0.0357385165652853,-0.00770869829644252,-0.522075721459586,0.03609828227644,0.0526356139678284
107,377,12.3485275219311,-0.725082834173425,0.948254138554922,-0.231170301274459,-0.0401468192994141,-0.00587403718564017,-0.595881861589485,0.0718272654798432,0.100667189188166
108,378,12.3461005634123,-0.725597512083975,0.948085625067205,-0.238462172182851,-0.0436005283494936,-0.00547963987936322,-0.589823584339278,0.0424782656983879,0.05549461873964
109,379,12.3435772410818,-0.726171363820796,0.947915925983151,-0.246156672847597,-0.0474868135748129,-0.00525064428592566,-0.457997142067321,0.0190649675339464,0.0836772139883629
110,380,12.340954799636,-0.726781271223469,0.947746984282834,-0.254283480956484,-0.0517243833200867,-0.00435387120019835,-0.448741577664822,-0.0425118408543833,0.155390991511812
111,381,12.3382214576801,-0.727336888526669,0.94756388462902,-0.262196914083865,-0.050875948248984,-0.00352316405161978,-0.350547226908683,-0.00237855128727739,0.241650282028795
112,382,12.3354308088062,-0.727896782968565,0.947404573082838,-0.269453366862582,-0.0517050916912497,-0.00136523242178923,-0.336175304699,-0.0388745145146549,0.28817529971564
113,383,12.3326247220475,-0.728438272872942,0.947216340497593,-0.274756661097241,-0.0507684822492509,0.000105771857068885,-0.244593018467169,0.00637489824429358,0.315124847993624
114,384,12.3296547362736,-0.728884732830481,0.947020533780507,-0.282369890044666,-0.0480706865609994,0.00166600235723108,-0.239512606486339,0.0783549953296548,0.3285331043292
115,385,12.3266968495512,-0.729204226487468,0.946773717920497,-0.290183312188514,-0.0441042079726431,0.00187431783816423,-0.284651468980856,-0.0626454604720557,0.330128505657787
116,386,12.3236317666824,-0.729521145701245,0.946496904815424,-0.296880506514816,-0.0414566635468813,0.00206082977010256,-0.343092353262262,-0.0815659520181241,0.319289767151193
117,387,12.320515223229,-0.72980250478857,0.946192101463563,-0.303706470665203,-0.0394987778661223,0.00158050244983985,-0.310381517658403,-0.143948412354142,0.291835218504265
118,388,12.317342838641,-0.730089336525446,0.945856001259545,-0.308985532910196,-0.038815394294736,0.000594940907725352,-0.273250027291757,-0.136159608768556,0.239780017124047
119,389,12.3141516547268,-0.73037877987413,0.945486460190491,-0.313031878599243,-0.0381075919059281,-0.000826905748853005,-0.281377501550157,-0.19150022858024,0.210040436444815
120,390,12.3109565735201,-0.730697866314318,0.945085886135049,-0.315821154652897,-0.0398290118762014,-0.00262099856136573,-0.259194221135013,-0.221587812780497,0.154691269368084
121,391,12.3077502016109,-0.731014941579239,0.944676613469269,-0.319122318764357,-0.0418851040637241,-0.00396012401781776,-0.27763767076844,-0.260989615428969,0.127514732458764
122,392,12.3045660928412,-0.731417541976891,0.944252470553803,-0.321632711423856,-0.045308294980679,-0.00522736873469897,-0.293091010728446,-0.284403584772525,0.128088561384369
123,393,12.3013761368736,-0.731870788601821,0.943878474599553,-0.323054317614215,-0.0498655013754998,-0.00598301217862772,-0.31397626671308,-0.246519586814281,0.103949329761253
124,394,12.2981848055137,-0.732370345573052,0.943545163448256,-0.32412758866292,-0.055034290039961,-0.00569475025222215,-0.339812338777262,-0.213701529540133,0.135760375527432
125,395,12.2949739107122,-0.732921186984538,0.943351113388596,-0.326007275403015,-0.0598414913572498,-0.00336800105654669,-0.348228973125197,-0.236562212517512,0.261701734103856
126,396,12.2917371060082,-0.733540071227062,0.943213527979011,-0.328913879838234,-0.0663417066022557,0.00184353210220123,-0.486006792863916,-0.194193367721417,0.3937318248663
127,397,12.2884760642041,-0.734245438137926,0.943217917076068,-0.334434291557056,-0.0748512624294103,0.00679955339567996,-0.554569740457099,-0.253095574029582,0.430406627444071
128,398,12.2854159105851,-0.735327047182211,0.94329427069354,-0.337461214216131,-0.0851831413029781,0.011232850601332,-0.55829716206431,-0.248299094398925,0.355830936565745
129,399,12.2822420327263,-0.736449438626506,0.943475898828151,-0.3402630246185,-0.0938571660690221,0.0168024883537973,-0.541977427254843,-0.121227109974828,0.407089884438271
130,400,12.2791170351419,-0.737773533921886,0.943740712687183,-0.343270048020712,-0.101317738936095,0.0208398568084172,-0.400468113463544,-0.033217894568994,0.33883234593618
131,401,12.2756777007837,-0.738773544207234,0.944074214906524,-0.348033751216588,-0.103612754506146,0.025360039444049,-0.349400958870489,0.0257745810946869,0.333801682492462
132,402,12.2724335968624,-0.740004030305481,0.944461262317737,-0.349132321739425,-0.107349319159938,0.0297076847706141,-0.332888296286427,0.108052883464056,0.285538066303448
133,403,12.2691346589156,-0.741179666025439,0.944882162137945,-0.348919216535803,-0.107102234360362,0.0345881894504504,-0.289948540859796,0.143616251510979,0.359489222734975
134,404,12.2658616267281,-0.742357332473097,0.945338264248772,-0.348123580552403,-0.103690893446962,0.0383008048371205,-0.217979689802191,0.201602821074458,0.277970581676507
135,405,12.2624913217122,-0.74327911826392,0.945932268457473,-0.347927075525177,-0.0966663779830314,0.0420153406594466,-0.14288655444377,0.177333836928868,0.186811417325691
136,406,12.2592983265493,-0.744249807769768,0.946622597784359,-0.343039836437037,-0.0902834865318996,0.0457618424769392,-0.0632520678996834,0.158681689972989,0.126511819810387
137,407,12.2561538797915,-0.745060623068728,0.947375921679335,-0.337278236494668,-0.0845615296001633,0.0488614727341038,0.00890926559221952,0.0989490447325241,0.0385712265738399
138,408,12.2531419216744,-0.745931572618419,0.948174317125153,-0.328808873691409,-0.0806508666948018,0.0512287837425865,0.0486451400974405,0.128667381409624,-0.0615433174173138
139,409,12.2500772626066,-0.746696743424075,0.947864107484559,-0.321432385283594,-0.0761312500525136,0.0483546748771952,0.0755706498879233,0.195657285474908,-0.156254941283746
140,410,12.2468313876215,-0.747198522027826,0.947782460000688,-0.316448570478974,-0.066576848838787,0.0458308267865485,0.234199653604874,0.274125274322245,-0.235959140141038
141,411,12.2430466876427,-0.746713953733721,0.947776194130228,-0.319487861809854,-0.0396869895300677,0.0426637640037423,0.452578774229361,0.307892016966248,-0.330049482342876
142,412,12.238655923691,-0.744867117158852,0.947696971695852,-0.330950622008429,0.00360508111064177,0.0376776257115843,0.53044375029487,0.249505727675394,-0.460709537219422
143,413,12.2339572780774,-0.742106209684219,0.947458376711761,-0.345721749265344,0.0533592575755403,0.0308269632577116,0.524603325665129,0.208009104872784,-0.49592881941837
144,414,12.2292262230544,-0.73908822363879,0.947068600201162,-0.361861643695,0.0999719931410994,0.0225395837156396,0.455354562537975,0.43603751020588,-0.462755065301007
145,415,12.2246155352736,-0.736241243537481,0.946580470321886,-0.376251156536075,0.135996789351654,0.0136512618423549,0.166196017887626,0.548459520944279,-0.499831466654158
146,416,12.2201622681646,-0.73377610473602,0.946043823318421,-0.387568945592095,0.160925132695656,0.00520140939534751,-0.0277150798479316,0.726654164157074,-0.459461632365286
147,417,12.2158981426764,-0.731760022678267,0.945498099424745,-0.393832899392115,0.175548126976305,-0.00188827504565502,-0.102522595491501,0.822539002490974,-0.394920000361303
148,418,12.2118357263215,-0.730155761375721,0.944970551844926,-0.394924828695293,0.182937269407438,-0.00743882599456029,-0.0998925849262021,0.779154654465835,-0.311362113245935
149,419,12.2079761678652,-0.728959327159379,0.944462246757142,-0.392254585356592,0.180364690696659,-0.0141861864666797,-0.212367159444563,0.727614657082421,-0.518205747460917
150,420,12.204330583243,-0.728100570390561,0.943955948248631,-0.386790583062075,0.175463242217831,-0.0197286038631115,-0.176272547757108,0.631011903743564,-0.371692454674567
151,421,12.2008514298183,-0.727549805303244,0.943450675788365,-0.379599881168793,0.165437435091125,-0.0259521614271545,-0.0612982567298798,0.606336879169767,-0.464072974884659
152,422,12.1975263591757,-0.727206655287888,0.94293436418571,-0.369963078377,0.155028355354544,-0.0322970155089263,0.0533171122416096,0.579057007458899,-0.49705100196599
153,423,12.1943311153035,-0.727006401800599,0.942412093787155,-0.359703977793329,0.143958888897114,-0.0380508614509955,0.114619849976803,0.585168644074307,-0.471000490820851
154,424,12.1912357553324,-0.726892246175117,0.941898874100966,-0.349888987430901,0.132513270928611,-0.043434225322356,0.112208495811551,0.544362684846564,-0.471906266090492
155,425,12.1882035845024,-0.726843960592968,0.941391100474965,-0.339601337220148,0.121048401289343,-0.0473325063633978,0.0929870868635644,0.449988942921202,-0.413995201992168
156,426,12.185249732237,-0.726820148499159,0.94089089495214,-0.329428346434701,0.111025324089711,-0.0500286743476594,0.0501956494225952,0.366783871858918,-0.357477312971985
157,427,12.1823761384121,-0.726787302056577,0.94039284770082,-0.319587764078014,0.101779447313315,-0.0522335026652377,0.112237316519853,0.306959485151818,-0.311874005762106
158,428,12.1795985013362,-0.726654277546348,0.939877801570557,-0.309738280725118,0.0986866512922314,-0.0554609616878416,0.186633902164154,0.336359636159156,-0.355862016695577
159,429,12.1769320151688,-0.726402639451166,0.93934876442201,-0.297705568291819,0.0974657407884708,-0.0569553085802096,0.213830859768752,0.549885700710845,-0.285268955429727
160,430,12.1743696801224,-0.725987851341371,0.938799252036067,-0.285739264197369,0.0998754316871175,-0.0592192093077643,0.251378542266598,0.52187995747736,-0.318146173250244
161,431,12.1718713807159,-0.72541353677309,0.938217971885671,-0.27450198942783,0.104062712053403,-0.0616406339795073,0.325354745883184,0.554174746440994,-0.270093766086469
162,432,12.1694051662657,-0.724664843399801,0.937599645626576,-0.264993688041689,0.109991475202963,-0.0652380139467009,0.366934983307152,0.512039357123517,-0.320134909776883
163,433,12.1669477339574,-0.723774919481753,0.936941333084733,-0.256265771797177,0.116293922897498,-0.0689259353225405,0.31089060361202,0.449869104235771,-0.376067113825468
164,434,12.1644738941893,-0.722774923055714,0.93624625492626,-0.248601848223098,0.121727855753,-0.0725560439361906,0.282795400551239,0.492895988416199,-0.430361142929072
165,435,12.161970943993,-0.72169066428019,0.935524838168204,-0.242864564413831,0.127156226001002,-0.0747295437686857,0.180792154946729,0.570621496207682,-0.397466803164802
166,436,12.159401684116,-0.720529266775135,0.934793909719251,-0.239701164453209,0.133540061530514,-0.0757670837686989,0.195226567369705,0.613056385167073,-0.300426672026437
167,437,12.1567502777683,-0.719301296051011,0.934067295795869,-0.239894201044209,0.1404319775257,-0.0763380129359385,0.0953729086008052,0.624339351406617,-0.243239961388703
168,438,12.1540300001364,-0.718087192874534,0.933358251822775,-0.240659912907122,0.144088099486409,-0.0757700403359921,-0.0185429798120043,0.664400515507592,-0.208450514425669
169,439,12.1512662357323,-0.71689502425281,0.932662885623159,-0.242002871701163,0.145183251193145,-0.0775409203003139,-0.00920330695611055,0.524037415794752,-0.371922546869418
170,440,12.1484740844349,-0.715750335132001,0.931972679864537,-0.242767901431228,0.144100967273678,-0.0796318360305424,0.064795403945814,0.356911283797865,-0.405920684329676
171,441,12.1456670369316,-0.714643377423805,0.931289754299231,-0.243970426605536,0.140717493861407,-0.0817559267863533,0.0481790274265412,0.124657381531132,-0.410749745937674
172,442,12.1428304244502,-0.713593698702983,0.930618855273288,-0.245456146200084,0.136730374022314,-0.0830928931947708,0.0520295970852296,0.0744282175141984,-0.379170513003205
173,443,12.1399596610246,-0.712576718404692,0.929966278683881,-0.247159418951399,0.134267672623377,-0.0833519241501322,-0.052927855849901,0.08796416939607,-0.363156886872947
174,444,12.1370729717713,-0.711568838848745,0.929334043373644,-0.250699519977626,0.13202037961501,-0.0825090539903182,-0.0303574548323549,0.165746722171076,-0.238950730345772
175,445,12.134120191416,-0.710556863520887,0.928697074247438,-0.256842886127322,0.132060772452437,-0.084225539542425,-0.0846864141894114,0.354300645496531,-0.384290598058833
176,446,12.1310749330602,-0.709448468526453,0.928048102155075,-0.265962719666499,0.135282841373366,-0.0850202694792101,-0.180761717291808,0.458891239278717,-0.2474168362298
177,447,12.1279360405102,-0.708232183952243,0.927396583610546,-0.275637686355998,0.140980243039548,-0.0842885324910769,-0.313921284823985,0.550083219050993,-0.127175329009106
178,448,12.1246964599733,-0.706896243809895,0.926747535005613,-0.285342210649317,0.148611702051868,-0.0824502906436298,-0.366150303160749,0.583825334910712,-0.019716497877345
179,449,12.1213664553792,-0.705457495046824,0.92609643194826,-0.294298823965122,0.157143657232259,-0.0803723631285951,-0.340748685365211,0.690921908422414,0.0133031127470616
180,450,12.1179772231776,-0.703884509401285,0.925436678034874,-0.301461277520003,0.166952600857696,-0.0780185176892593,-0.367393150541262,0.67542198282211,0.0147549071309872
181,451,12.1145427790769,-0.702220142434274,0.924757669678374,-0.307399958636176,0.174775422268862,-0.0757855431310995,-0.286579843379577,0.623180203209571,0.0171411282141379
182,452,12.1110625404592,-0.700462675073166,0.92404649681949,-0.312786823680254,0.181785747037769,-0.0751802626559726,-0.240808610522177,0.551546697007498,-0.0760620656621969
183,453,12.1076007594639,-0.698621417103865,0.923297537112714,-0.314971641029922,0.189049366689319,-0.0750322486886765,-0.41154354660701,0.499088614816858,-0.188962334972313
184,454,12.1041797597271,-0.696645927937138,0.922497219705332,-0.315265974925845,0.200505214254786,-0.0771588489511811,-0.497617169672124,0.552876845811774,-0.405367118140189
185,455,12.1008289547373,-0.694569643511723,0.921622200979064,-0.311160847069796,0.213923860096386,-0.0801783345750016,-0.379241985219995,1.06953745887152,-0.578846712159579
186,456,12.097581292236,-0.692404477180007,0.920602457084174,-0.302343463636851,0.228575857532698,-0.081698363013379,-0.549611820253897,1.48738935050837,-0.560790077472478
187,457,12.0944431474975,-0.690172545758953,0.919475198090682,-0.293390175340312,0.240843556832724,-0.0815520655024483,-0.797174596241368,1.35552352460853,-0.294275896209651
188,458,12.0913101502502,-0.687891637870191,0.918285458834325,-0.298817002706874,0.251630467528258,-0.0895429297922223,-0.793964485332588,0.826425231452495,-0.305554150377087
189,459,12.0880830220084,-0.685558928442332,0.916873902669462,-0.315413908513588,0.260411011360706,-0.101261632803601,-0.863908962827674,0.34115081296296,-0.0639713832512103
190,460,12.0849268419963,-0.683199967100781,0.915375847305519,-0.317257654861989,0.267688831825163,-0.103597085857848,-0.618496959816303,0.244077133500462,0.640184947648064
191,461,12.0820663724292,-0.680932685956209,0.913864629196469,-0.302342524014541,0.263947751572793,-0.0939145317846785,-0.158323185739338,-0.163706471654377,1.38300996640513
192,462,12.0794326886957,-0.678734031568457,0.912415508760046,-0.29433651059663,0.249698456198856,-0.080470263345337,-0.650209171558048,-0.648966925048945,1.60743212801553
193,463,12.0767077335503,-0.676788853733373,0.911009937133661,-0.295246391785214,0.229511159721345,-0.0665998296119659,-0.700407477275292,0.0485450967657651,1.55908024977843
194,464,12.0738754857137,-0.67514098704774,0.909703196232166,-0.307369753423804,0.207869365954339,-0.0586422024546431,-0.276430186261092,0.747647733103397,1.24413592460889
195,465,12.0710253121057,-0.673715202860577,0.908459533590101,-0.318247137755806,0.181682771833591,-0.0558970576697322,-0.257399120037288,0.235604605609446,0.955047158908741
196,466,12.0682455268083,-0.672417880697205,0.907240105234152,-0.320454747386501,0.163341178443199,-0.0554685680025752,0.0433526035443799,0.0532567035530777,0.921487590505023
197,467,12.0655360280772,-0.671144171690869,0.90613257095355,-0.318622223282984,0.154972447363198,-0.053378182274197,0.25660690773648,0.243592607644233,1.08672097281175
198,468,12.0629522810405,-0.669802217275859,0.90501110853922,-0.315311790349098,0.156631222257252,-0.0542120614933821,0.579836014937239,0.431172861543153,1.00457871277086
199,469,12.0606231813547,-0.668355913028245,0.903914596874864,-0.309331106851789,0.163880852288426,-0.0572231621999267,0.960536217381821,0.429705359268785,0.886968790905177
200,470,12.0587115056704,-0.667159796325963,0.903583175012398,-0.294516871060834,0.168201400036841,-0.0484521991781755,1.34238534282433,0.624778112455141,1.07831840297968
201,471,12.0568837219877,-0.665445862871902,0.903129728558063,-0.28225761760443,0.181332829286271,-0.0425177965862043,1.12382539559299,0.240455347345083,1.04622252537811
202,472,12.0553609764123,-0.66337982230374,0.902957600131345,-0.265948406128712,0.198389053712059,-0.0332940267074398,0.701460464236841,-0.106710604483244,0.910541469988475
203,473,12.0520098080786,-0.661261061106165,0.902986693127716,-0.264676283458713,0.206767398163953,-0.0251750688551545,0.356511400262723,-0.29636759725273,0.486651911215461
204,474,12.0509498622419,-0.658429680504488,0.903283682970492,-0.245543916934631,0.213069778920382,-0.0205405106967696,-0.0348860257363669,-0.392133990165565,-0.146385533838343
205,475,12.049312967816,-0.655976235682022,0.903706200176992,-0.224910546483003,0.207550420745773,-0.014372603651743,-0.152092073830239,-0.463970796649563,-0.424556825854849
206,476,12.0481296746427,-0.653672760373052,0.904226230071717,-0.201150307731436,0.193600773289353,-0.00609538725262227,-0.240612619266414,-0.32677073638173,-0.35957177966436
207,477,12.0469569971504,-0.651613652212712,0.904885937793488,-0.182404223560386,0.176331933939309,0.000563240964358272,-0.366457345597616,-0.477152262128115,-0.539819228975262
208,478,12.0459583612793,-0.649714604546552,0.910356304459412,-0.164569231609194,0.158741015529748,0.0364195875002136,-0.424717562088776,-0.656469251849826,-0.64141640707273
209,479,12.0446968631067,-0.648002319466536,0.914705674030374,-0.156531575482922,0.144513960567665,0.0647564075906925,-0.275685373841022,-0.57211018701739,-0.60023538160096
210,480,12.0425393311564,-0.646163542347893,0.918595963848681,-0.168182585357569,0.137818628050468,0.0884496538467746,-0.152535260200894,-0.473874803044892,-0.398923756406382
211,481,12.0388162766681,-0.644077451236896,0.922253276239083,-0.207403819156322,0.140312330853155,0.108619123426622,-0.0848838279245049,-0.523558745752006,-0.161088475090156
212,482,12.0339936277288,-0.641704332890693,0.925807108097185,-0.259843087195578,0.150411870574911,0.129157766654818,-0.00628287382561113,-0.60955210724167,0.230780564270353
213,483,12.0285939266767,-0.639166189291471,0.929257578615094,-0.317637182746531,0.164339996509316,0.147513486595176,-0.140420485612937,-0.786564806400646,0.409969299947918
214,484,12.0230137196389,-0.636492695221283,0.932511767586888,-0.369692116336406,0.183442748361325,0.158490758995184,-0.113885442030101,-0.666152120205783,0.143934998128365
215,485,12.0174281518222,-0.633663517253233,0.935494572943686,-0.412742912781369,0.203931820689397,0.166459249884713,-0.222573056306785,-0.404566176773975,0.167906141178953
216,486,12.0119930795428,-0.630715152672614,0.938186904663191,-0.443903167215343,0.223935349176008,0.170158126102953,-0.356362410689512,-0.269806415054409,0.0394841101553923
217,487,12.0067312021313,-0.627718556901568,0.940559897592617,-0.467371567752456,0.238438297798744,0.169527134616094,-0.534969204029272,-0.205677658473108,-0.164798404760773
218,488,12.0016578958887,-0.624730782159827,0.942609563383271,-0.482981987813646,0.248613723467213,0.165293239168649,-0.488833422804173,-0.223130846796497,-0.323893217841444
219,489,11.9967886722006,-0.621850706619352,0.944348295297698,-0.490375698208279,0.252426229042796,0.158935124220357,-0.467269863433139,-0.276496805166723,-0.427655706264582
220,490,11.9921328513545,-0.619127014203812,0.945794888694994,-0.490484506957591,0.250539792190845,0.150468399493205,-0.469324727523742,-0.30601626163621,-0.517246066003572
221,491,11.9877032100537,-0.616564737639551,0.946982758023032,-0.485361101169297,0.244901723053602,0.141171381571997,-0.468019873639116,-0.27844920080909,-0.572115066460184
222,492,11.9834825642735,-0.614161082349987,0.947947674011339,-0.478022553177546,0.236526644321875,0.130878570791873,-0.449308906655819,-0.259459963870852,-0.603064004450422
223,493,11.9794232050681,-0.611928318916432,0.948716798072311,-0.471995269656659,0.226088555996258,0.120003988530298,-0.547662008545442,-0.331285625298528,-0.591501864258244
224,494,11.9754976884341,-0.60984894108895,0.94932334443468,-0.465768413756429,0.214886710966424,0.109200056113224,-0.732831052563486,-0.392918583699468,-0.553173414412285
225,495,11.9716382481388,-0.607920537023881,0.949787731915498,-0.461095782881593,0.203647913979331,0.09650925853067,-0.716711235056861,-0.413238923020256,-0.67457236573758
226,496,11.9678322516611,-0.606133687223622,0.950128891224408,-0.454301216782568,0.191835078042869,0.0849074366826155,-0.649797690127068,-0.303403879026713,-0.631925873269125
227,497,11.9640549830451,-0.60445592008104,0.95035439837159,-0.449240964085394,0.180503358893272,0.0735534300687339,-0.599414102974317,-0.261987960789692,-0.555517849066148
228,498,11.9602801414833,-0.602875445465196,0.950472301191759,-0.446225228346998,0.16925693293973,0.0620568135230612,-0.584588278011985,-0.419865001859257,-0.54645386032114
229,499,11.9565060579832,-0.601406810403604,0.950511575174864,-0.44178704270742,0.157755735582949,0.0528197209459809,-0.611694805352441,-0.522336983022168,-0.391188515449839
230,500,11.9526869466039,-0.600015357808778,0.950482441906705,-0.43919490018802,0.147440476295283,0.0430273048320839,-0.602807456713547,-0.636937995194197,-0.416321227194053
231,501,11.9488153073001,-0.59871315771077,0.950398677016443,-0.437152476367666,0.137953580928561,0.0344967679440939,-0.76927996312847,-0.555153599165355,-0.396060413815402
232,502,11.9448384338994,-0.597482856015507,0.950259325060538,-0.438351375897796,0.129794465984704,0.0251266766413717,-0.792249424962393,-0.516459847604509,-0.462411914005641
233,503,11.9407523161825,-0.596300654587157,0.950065757268303,-0.440705439735996,0.12269087158401,0.015758701570515,-0.862303517400406,-0.545767277206542,-0.488249021450355
234,504,11.9365898407082,-0.595138506900258,0.949818450803698,-0.443823352709634,0.115583417276275,0.00630098220265052,-0.94305232951726,-0.529078389658329,-0.611157687777059
235,505,11.932348702839,-0.593994719434849,0.949526637287223,-0.445885700646572,0.109800383552726,-0.00215284032566741,-0.938810364675272,-0.564360681821599,-0.609411984621088
236,506,11.9280437155695,-0.592865688889828,0.949192025227433,-0.447303714881643,0.103788762418852,-0.0096722827257576,-0.912488956724539,-0.440823792288321,-0.634367110309626
237,507,11.9237251340673,-0.591731972262221,0.948819850043984,-0.448044694376325,0.0978368453434331,-0.0168124868143974,-0.960343962430914,-0.36259276654853,-0.683508707900647
238,508,11.9193798959429,-0.590594824099084,0.948401311840156,-0.447690036303398,0.0927458706241597,-0.0247156889312086,-0.938464355366392,-0.231173212055099,-0.791863904969818
239,509,11.9150474049827,-0.589422188284711,0.94792079026359,-0.445466183873331,0.0904666320588264,-0.0344961940789469,-0.776546215690975,-0.0406364699463569,-0.954725131761699
240,510,11.9107282459049,-0.588194515629589,0.947373177402961,-0.44405977589098,0.0883801540077819,-0.0438476646663398,-0.712583335154693,-0.0300597313710632,-0.923127350720435
241,511,11.9064196920386,-0.586901419911672,0.94676558250237,-0.444308554981009,0.0872165984245813,-0.0515807713883999,-0.538353079258657,-0.0659803538732328,-0.732961046431151
242,512,11.9021318124227,-0.58558673504595,0.946125073488657,-0.445329203489457,0.0853766610418606,-0.0572578149351693,-0.809340800534225,-0.127007610489872,-0.668116856825731
243,513,11.8977768087036,-0.584293370259822,0.945473614867687,-0.448348609681793,0.0831429453987542,-0.0632098256602563,-0.836496615775121,-0.222730734745941,-0.694293630343739
244,514,11.8933415221921,-0.582955801955868,0.944819668066572,-0.454140123305748,0.0845363350611742,-0.0672587012792046,-0.935899859706038,-0.0323177590235456,-0.528321995202388
245,515,11.8887795385185,-0.581610644156376,0.944309136147072,-0.464741603881519,0.0857834097165122,-0.0682230432014916,-1.14124590686908,-0.0268104886626552,-0.399937903381273
246,516,11.8841067494545,-0.580269897128416,0.943902658833833,-0.475163871622925,0.0905768557105057,-0.0647384366397704,-0.976059944956265,0.00711951454370332,0.0676230942404137
247,517,11.8792923226579,-0.578999975914967,0.943563876638899,-0.489634346918471,0.0973816287961009,-0.0570013283651444,-0.948003698842162,0.152567272973971,0.582618721911083
248,518,11.8743038727899,-0.577771626897195,0.943321829849287,-0.502720434610741,0.105685752513589,-0.0374480784706231,-0.430827888403523,-0.235922748837559,2.03802662741363
249,519,11.8691856377286,-0.576586697755851,0.943299207558933,-0.509940744083405,0.118856615887167,-0.0028587225612036,0.00669715243455911,-0.0759992648828971,3.52821919565854
250,520,11.8639983042125,-0.575346632626689,0.943524908077192,-0.51981805621429,0.140197562457003,0.0372073704577053,-0.0186823714779224,0.547091721849685,4.15126928984623
251,521,11.8586875200283,-0.574040755157076,0.943904745222121,-0.532879930692952,0.160703245555366,0.0658027314750799,0.625217099568927,0.646441280023312,3.49161356776778
252,522,11.8533023304393,-0.572665995747075,0.9442976527153,-0.541827231947894,0.176723527431367,0.0794409787819976,1.71103339322934,0.536928322841115,2.53579263580063
253,523,11.847990158402,-0.571348641551846,0.944676233828589,-0.543353650353754,0.176880690322678,0.091737278777926,1.64945972759992,-0.135143980077943,2.17023260252595
254,524,11.8428650418891,-0.570292932245473,0.945165071080087,-0.532347039653503,0.158077942798713,0.106462246090424,0.480102994542205,-0.164423629917895,1.7708298165171
255,525,11.8377705968612,-0.569777861943201,0.9457583807959,-0.527816447452793,0.12288728408896,0.109029113281952,-0.961040165851891,-0.611472526878959,0.568554509596487
256,526,11.8327221318107,-0.569830190139113,0.946388461032311,-0.526321170110394,0.0789414395979895,0.111703693002228,-1.86792016069228,-1.04866246959704,0.622360216692384
257,527,11.8276191617775,-0.570466883946846,0.947094529761074,-0.528099923612012,0.0302079515170251,0.115813890474938,-1.95429400488219,-1.68633128942345,0.788190798395382
258,528,11.8223012408861,-0.571612389506508,0.947925764431596,-0.534232946492141,-0.0137333417396417,0.118331566581045,-1.20550592712275,-1.73235372275866,0.629053363012518
259,529,11.8167616091698,-0.573138311997129,0.948893469668838,-0.54030995396492,-0.0457151412759665,0.117692937968902,-0.0103764158607477,-0.786527778870768,0.242404430370125
260,530,11.8106193629328,-0.57467631134189,0.950000658039794,-0.55981039351025,-0.0596963280810839,0.116020555517261,0.635715302367494,0.172151242104005,0.0386768537973991
261,531,11.8035840981835,-0.577012513511003,0.951224895626262,-0.586015184728552,-0.0722092962253389,0.111946344658429,0.889925502713879,0.970787193509362,-0.193547065395441
262,532,11.7970194897958,-0.578098540418191,0.952605957927775,-0.60440902372842,-0.0625507633891415,0.106528296025883,0.792151344233419,1.01640714652342,-0.411752745944967
263,533,11.7904565084678,-0.57922913832457,0.951848387845659,-0.618255271540092,-0.0486164455418569,0.0870482355494621,0.732155858255943,0.466434557454435,-0.6384297361342
264,534,11.7842607310958,-0.579592736931108,0.951730456418216,-0.619565342896644,-0.0266805625694635,0.0721789624100976,0.915234337523087,0.148891827822486,-0.724683174543267
265,535,11.7781032264662,-0.579408253266398,0.951767223966543,-0.612036613597826,-0.0014703116463034,0.0622242376261763,1.05971063215034,0.347923873907679,-0.649507161110016
266,536,11.7720026072318,-0.578343591830596,0.951572004024138,-0.601952264122332,0.0342141048855601,0.0519469513634818,0.810544222271194,0.521759961076184,-0.576986566712975
267,537,11.7660990001593,-0.57651555291912,0.951000242167435,-0.588749324694464,0.0749929628840566,0.0414958849818271,0.248548097510856,0.501492834453152,-0.457863983488746
268,538,11.760436953631,-0.574222696512996,0.950364661980082,-0.572619129738425,0.112688612813509,0.0307981770937179,-0.0508316926728003,0.528059939578002,-0.389498810007954
269,539,11.7548948872461,-0.571673072933323,0.949389326784415,-0.558574215690599,0.145143052972002,0.0165566342211916,-0.0142658953955716,0.563484285366154,-0.446087120156413
270,540,11.7493896960944,-0.568926460248289,0.947947809250284,-0.547602906488812,0.171366571777464,-0.00248658835074172,0.358417257084768,0.504872407770036,-0.583535473239428
271,541,11.743747281178,-0.566090011664369,0.946446154653198,-0.542406144356185,0.190607543100329,-0.0227979703221391,0.567267900355776,0.467913294627832,-0.787034842699806
272,542,11.7379978788347,-0.56321045273249,0.945002658579656,-0.542822523895197,0.205938559007655,-0.0382172772307939,0.261423882079105,0.381271364268149,-0.586215511023014
273,543,11.7321603328645,-0.560491668670561,0.943631886672062,-0.546416144703162,0.211822988963243,-0.0477674161064241,-0.115652696021947,0.408192920115531,-0.343596792243216
274,544,11.7263582213978,-0.557800991900168,0.942281605478709,-0.551239837049476,0.215089013303738,-0.0561492528404549,-0.047292162684849,0.512390104986235,-0.283946452422361
275,545,11.7205654594349,-0.555323610526614,0.940981913166315,-0.555249711543788,0.218680391211682,-0.0637012621512524,-0.0834656254338585,0.361383178406215,-0.275795366602281
276,546,11.7148388922066,-0.552935804797619,0.939757118213133,-0.557715700091778,0.224912928379182,-0.0718554451669976,-0.0349510861708505,0.380225358511825,-0.409292930896149
277,547,11.7091516800485,-0.550528124523976,0.938557508198444,-0.561238596680366,0.236570147854858,-0.0840208766342472,0.177961964404311,0.333940599587012,-0.717820770000907
278,548,11.7034836417913,-0.54807059685695,0.937338578811602,-0.563268949582257,0.252845376211236,-0.0957970896531617,0.432659941175322,0.413460523707512,-0.726342754939099
279,549,11.6978466122301,-0.545568683695417,0.936095405776345,-0.562785327568351,0.27202645760293,-0.106875994331306,0.667031967747192,0.582239641846616,-0.708129129183693
280,550,11.6922791352247,-0.543033694291715,0.934918181295342,-0.559502730868993,0.289284435566696,-0.115604902149528,0.700588899866569,0.811825722341793,-0.638670185823015
281,551,11.6868172005567,-0.540453844178833,0.933648992638156,-0.5516142806173,0.303710850961729,-0.122996474708439,0.646433844728452,0.872616182788169,-0.631749702028256
282,552,11.6814653917643,-0.537812704898171,0.932342820026649,-0.540455663655243,0.315159159521476,-0.129991099843607,0.505864120639718,0.8860795856823,-0.693579614155816
283,553,11.676222087955,-0.535127018329921,0.930991524896654,-0.528273529028527,0.324450480057151,-0.13739592212134,0.335789442204074,0.843412279325568,-0.750677079135702
284,554,11.6710708721699,-0.532390723174552,0.929581949220609,-0.516272712121312,0.332159657428888,-0.145116711101791,0.156958162428364,0.89681306189632,-0.801507909742436
285,555,11.6659906036917,-0.529586445590269,0.928099640759753,-0.504346868405106,0.337747801293959,-0.153131373053344,0.104675258722514,0.799044552546191,-0.841412183594901
286,556,11.6609479889724,-0.526700166183637,0.926536734102739,-0.493592035541462,0.341703573468846,-0.162093532433936,-0.0139855000335706,0.842996999975716,-0.913897522369753
287,557,11.6559057553228,-0.523710389474034,0.924889983627581,-0.483164420073463,0.34426059110591,-0.170340695224633,-0.108594501649257,0.949736787676819,-0.822008569772355
288,558,11.6507943451143,-0.520557080555094,0.923157935272683,-0.478964412954982,0.350361162904298,-0.177323645386643,-0.304664277281256,0.940836070365484,-0.751429272616113
289,559,11.6454547728512,-0.517187301360836,0.921348520072905,-0.484629768313359,0.360093877844807,-0.180891983548302,-0.439239915743771,1.10199356943673,-0.709907693827491
290,560,11.6397359239707,-0.513641334422486,0.919505071605377,-0.494051158137343,0.369321949388502,-0.176075628194398,0.00105719233460012,1.15767434484567,-0.0372002082758347
291,561,11.6337875716116,-0.509965158782838,0.917665717514416,-0.502625805342224,0.370676226984255,-0.168619321749726,-0.516733771987207,0.565475621826729,-0.0965589619795321
292,562,11.6279334504723,-0.506631529848735,0.915446371695563,-0.498186742708755,0.363482029120508,-0.168808663095229,-0.724116554119605,-0.561667536230626,-1.0081064978131
293,563,11.6219381690684,-0.503160880855862,0.913539309428806,-0.499262844032431,0.354486683343478,-0.161873927022052,-1.505192579851,0.350431394671905,-0.0141205949006847
294,564,11.6162293416693,-0.500005248442415,0.911574712388017,-0.484356307736297,0.339998410204644,-0.178338174186155,0.0149731922039433,0.0368555548086201,-1.29548378803652
295,565,11.6108643159325,-0.497293792796929,0.909462108793514,-0.479121904111691,0.338671675304328,-0.19582577989574,-0.000286102979679555,1.27928348752733,-1.26989291077414
296,566,11.6058594218738,-0.494806002669323,0.907198349378088,-0.474173807391622,0.341655176863128,-0.221944704995238,-0.186770115865765,1.4492103286314,-1.9060602339258
297,567,11.6013330554174,-0.492532168755309,0.904735763576436,-0.459138005446056,0.343317393154082,-0.24479002601067,0.205731703900107,1.82425451958638,-1.26586014828215
298,568,11.5972860324083,-0.490279071128686,0.902170241934408,-0.432369230044545,0.341972904902378,-0.250282769489882,1.02026366366781,1.01023564196465,0.55369668964854
299,569,11.5937158424881,-0.487936232652292,0.899630519670032,-0.402341944626985,0.329134140091298,-0.231639776955517,0.730918350478058,-0.847976820411239,2.50730801012503
300,570,11.5904657426442,-0.485710290434313,0.897459224652605,-0.378337076394702,0.311589059662255,-0.180608855825675,0.335042560800459,-0.32082151607393,4.24346631727943
301,571,11.5871542905258,-0.483900990384295,0.895757177984857,-0.384996400587581,0.288808110525625,-0.12027634592166,0.47508924077722,0.537768625392162,5.14829810345095
302,572,11.5838053371844,-0.482365307690969,0.894472629634145,-0.407851457690544,0.258219034556106,-0.0808538777487665,-0.171987942654849,-0.0548837791094332,3.82862848811308
303,573,11.5804857378506,-0.481029588560119,0.893438988322836,-0.419597052050436,0.226299194695548,-0.0622365338215306,0.829324459718747,-0.472848116787154,2.59363609373325
304,574,11.5773909443239,-0.479723638169691,0.89263789396095,-0.420151127182612,0.202474285032241,-0.0527663343579372,1.98224226274408,-0.389503636513694,2.13123207426754
305,575,11.5747749304174,-0.47840075458329,0.892035538450225,-0.406290234388987,0.182331375309956,-0.0399113925189395,1.5957371162333,0.068607897542581,1.88036448459923
306,576,11.572514981242,-0.477115310657786,0.891658501314429,-0.392643375618157,0.170211339300701,-0.0339330663930894,0.516769537898289,0.287569775669464,1.01401896889085
307,577,11.5703722192086,-0.475980847969782,0.89151502695949,-0.380149535887581,0.166542143092138,-0.0361239052235023,0.526747069186214,0.747637501221884,0.142011990005384
308,578,11.5683898459913,-0.474937264740504,0.891460931824975,-0.36122039978537,0.16421070471698,-0.0439927880097508,0.911653884168115,0.944741779701792,-0.589865321896389
309,579,11.5667642426261,-0.473941758555439,0.89147313403513,-0.330582390894076,0.15764816640416,-0.0490468826693705,0.872402193980558,0.51988904709157,-0.694409000204376
310,580,11.565115182779,-0.472351866577641,0.898512338604803,-0.306586010866953,0.163851052744648,-0.0034724319035645,0.632632626037801,-0.12719377732306,-0.627468004070596
311,581,11.5607985138018,-0.470240871010643,0.905167158446305,-0.309510146648384,0.165898259744699,0.0375066076176838,-0.0151348312154255,-0.56127501316585,-0.611417689772587
312,582,11.5584334175212,-0.467610694535234,0.910241755799894,-0.297099930845761,0.168526007078553,0.0641031031909614,-0.445373507438991,-0.776994297320358,-0.837394384266198
313,583,11.5552225371892,-0.465148941904491,0.914627238779535,-0.293191090000899,0.169505150969211,0.0835494042200068,-0.333817416576268,-0.625241045424604,-0.85723542208413
314,584,11.5513793461721,-0.462442183130929,0.918745144869621,-0.305313949742651,0.176613203515205,0.101373689686629,-0.312250050076373,-0.628253566085049,-0.667402167179293
315,585,11.5460176006843,-0.459261892040272,0.922718253561276,-0.342772403130575,0.192951713368,0.118113128104853,-0.135053213069516,-0.496226412188109,-0.51141130191753
316,586,11.5398819634353,-0.455650278414036,0.926521417407981,-0.389778375669764,0.217437545008384,0.134217419951141,0.125516454569947,-0.062928850543356,-0.284816853022933
317,587,11.5334531616747,-0.451771189836709,0.930087940755514,-0.43767395683713,0.243742628502649,0.146410655171049,0.108636446170113,-0.116282935467075,-0.221690828333482
318,588,11.5270809570776,-0.44780383301945,0.933361140817083,-0.481387913269927,0.267196533368039,0.15332732587836,-0.147738968630437,-0.415469379547639,-0.302378469018073
319,589,11.5207033065498,-0.443902322723518,0.93630006457112,-0.519142765403906,0.288387951555111,0.154513451934476,-0.333543449857356,-0.361621849621224,-0.510475430976133
320,590,11.5142987014831,-0.440115902805752,0.93889652938437,-0.54880459398768,0.304250729350407,0.153387636862798,-0.393434247820284,-0.217967601018678,-0.540990966164345
321,591,11.5079142002775,-0.436343988172938,0.941155777212806,-0.571703842714605,0.316470024092058,0.150657787573109,-0.418157113387503,-0.167169004770926,-0.487866999615045
322,592,11.501690232519,-0.432566593346058,0.943091170945173,-0.586030375931471,0.324240420433219,0.145692859973311,-0.435747189352334,-0.190020976467356,-0.549782352143089
323,593,11.4957410551835,-0.428892985979866,0.944719585560697,-0.590171723602118,0.326662987602501,0.138926831360908,-0.482285095535914,-0.24614127802946,-0.648938026151962
324,594,11.490077645054,-0.425456820438712,0.946060822039836,-0.588920082940516,0.322430621360292,0.131020744626486,-0.449122141873037,-0.287442171733621,-0.631453548755622
325,595,11.4846553599779,-0.422319031288975,0.94714672432975,-0.584880268723607,0.312199113585548,0.121695418961581,-0.382199281698516,-0.338251484213769,-0.642113364599288
326,596,11.4794418832981,-0.419445369975281,0.948010973606419,-0.578328485667915,0.299856719947818,0.11221419389665,-0.466129009981306,-0.494959446602341,-0.560804399030518
327,597,11.4743846755875,-0.416833213386867,0.948696924260337,-0.569990771625845,0.28469473410526,0.102820101963165,-0.492402888646717,-0.538531658925471,-0.547823116352284
328,598,11.4694279155492,-0.41445055799042,0.949218968582139,-0.562122786965634,0.268641409509063,0.0926080209993728,-0.408711145260122,-0.550257086268467,-0.516102079177785
329,599,11.4645636323214,-0.412254889071423,0.9495904749909,-0.554486256238548,0.252210170438788,0.0826159168174425,-0.445715956530702,-0.486003774558575,-0.456475252566172
330,600,11.4597569438932,-0.410194387800407,0.949825385959956,-0.546883718797212,0.237090423067245,0.0728892359132122,-0.440701396911073,-0.540650066578909,-0.350705745315452
331,601,11.4550066708754,-0.40822901622796,0.949950012373821,-0.538965315958282,0.223090987852497,0.0635917755813683,-0.557322623609902,-0.56493318078513,-0.334884418281178
332,602,11.4502680162998,-0.406305496126167,0.949975477549342,-0.532382436248806,0.211111415773916,0.0537418786695603,-0.647616285825567,-0.606983725513731,-0.367598718032274
333,603,11.4455290641401,-0.404396568730286,0.949902847336596,-0.528797991708606,0.201034278747572,0.042747378475722,-0.722003565535227,-0.655456541525273,-0.446238911349642
334,604,11.4407690219379,-0.402499568646495,0.949739251511354,-0.525758368390127,0.193639722884052,0.0324259787493214,-0.700945289562022,-0.606129026095047,-0.446236226942168
335,605,11.4360116699821,-0.400539310260541,0.949492281533402,-0.521405824977033,0.189208722649823,0.0227349256546601,-0.717526174326966,-0.446341633558522,-0.49512662179268
336,606,11.4312043746186,-0.398591272415417,0.949175044042305,-0.518423617542722,0.184839204174104,0.0128226382810647,-0.838370909848944,-0.50917372282513,-0.586854353930312
337,607,11.4263338944253,-0.396627620470265,0.94877874689796,-0.516105588243355,0.182471528857613,0.00224954197301247,-0.865659512492203,-0.343563678773269,-0.70206783879891
338,608,11.4213868042611,-0.394606756030762,0.948449162987031,-0.517588781019264,0.179841433517821,-0.00748704033515079,-1.01350833379227,-0.376530916094157,-0.806299393742471
339,609,11.4163740037674,-0.392551103466367,0.948206177022809,-0.518687501904354,0.177392027339158,-0.0176950684843751,-0.997631719546164,-0.277613867334113,-1.01413276252729
340,610,11.4113341039246,-0.390515407891583,0.947963028410654,-0.520638520252781,0.173714156211206,-0.0299823254010915,-0.853139973258509,-0.148332532802843,-1.26818202635448
341,611,11.4063031868263,-0.388512328989225,0.947690447266248,-0.520125825871697,0.169143978066375,-0.0412679696423403,-0.625341352166724,-0.145955007395333,-1.26958689852378
342,612,11.4013638207904,-0.386608607404218,0.947379706323747,-0.519515871936109,0.161007352749808,-0.0500943206034443,-0.665895615552568,-0.376307680046042,-1.13858442326153
343,613,11.3965204373453,-0.384804577973349,0.947038779117688,-0.517210005112185,0.151030850919053,-0.0565018798038761,-0.64447967998731,-0.511872075963036,-0.982619028470188
344,614,11.3918017543637,-0.383118751335358,0.946672053174202,-0.513855250106354,0.141644713267111,-0.0606743043161828,-0.700314489516814,-0.409519655600883,-0.802774517395434
345,615,11.3871737529899,-0.381558133348567,0.946267548762101,-0.511402945667071,0.133763307476668,-0.0621187211606798,-0.731746827695004,-0.380957633598953,-0.438295429871907
346,616,11.3825425715235,-0.380098840127591,0.945845683030754,-0.511116049459361,0.129919128607296,-0.0595214532201896,-0.651928999553982,-0.220818047391833,0.112457106771005
347,617,11.3777928057358,-0.378718919498692,0.945437199748454,-0.515535251397973,0.129381224211441,-0.0508869480313122,-0.383384709027288,-0.333391374812765,0.934645279003485
348,618,11.3728026864475,-0.377375758003567,0.945107111301069,-0.524843700064464,0.131658876064541,-0.0236930156595399,0.140390397366912,-0.898033127789144,3.00279694406134
349,619,11.3676220238262,-0.375969583904822,0.945048912592591,-0.529467005243206,0.14339749356408,0.0211182936990171,0.126939592714102,-0.499564811607152,4.62038234799552
350,620,11.3623368885122,-0.37437945624803,0.945284655921519,-0.530043894307274,0.168038145588698,0.0697008888370915,0.189344821517017,0.371651408746095,5.07434234821579
351,621,11.3568675411364,-0.372619506425857,0.945694096558356,-0.53737421843018,0.192004662482412,0.0942793921527552,1.1619477158563,0.737875263863809,3.4824911000369
352,622,11.3512694967022,-0.370906572085435,0.946142908194961,-0.542040440295686,0.196589226572866,0.101214638668724,1.59565907737541,0.147364255102736,1.99985092968302
353,623,11.3455816351541,-0.36962383225318,0.946644871135469,-0.543569513254442,0.172976180435565,0.11240029045472,0.86437559893691,-0.534102751733266,1.90986693369291
354,624,11.3397671453049,-0.369075222856913,0.947296310709548,-0.543794092487335,0.133918270318272,0.127237747015835,-0.417107151645958,-0.449921418593151,1.70856058448957
355,625,11.3338480465898,-0.36934998093695,0.948126991916707,-0.549458839196826,0.0834691544654694,0.138239068142193,-2.22454152098625,-0.862581034550233,1.17885006721849
356,626,11.3276509517242,-0.370176124455633,0.949055796447531,-0.571780996446041,0.0335243260088139,0.140127757767771,-2.7423337882973,-2.14102413294366,0.675716583678531
357,627,11.3211494917831,-0.371442766935768,0.950053059806487,-0.592766229241745,-0.00510382882639417,0.136712738745182,-1.53463620285099,-1.68068270960643,0.196991711696478
358,628,11.3143445744222,-0.372973172845507,0.950849894559527,-0.612942143527044,-0.0265016879442557,0.12308983518944,-0.190945227903302,-0.446585414886404,-0.431819784577894
359,629,11.3073046509961,-0.374594379904379,0.952019761813462,-0.635172003855873,-0.0357859918575454,0.111490794940118,0.599073400671054,0.2759902507672,-0.777080454100176
360,630,11.2985272730868,-0.376173332387286,0.953309892994988,-0.668269424186544,-0.0343295125428481,0.0999992024142669,0.970381869769762,0.724146610344318,-0.942042081641943
361,631,11.2912125954019,-0.377164477747107,0.954728208154483,-0.68283323363284,-0.0215782408604054,0.0891435191017345,1.12377542510181,0.618410356574112,-1.00461279468061
362,632,11.2840272626397,-0.377564991097878,0.953994214807319,-0.683839329877332,-0.00516703186495826,0.0732657128379717,1.12900133510109,0.314775798219344,-0.756528380920559
363,633,11.2774427482098,-0.377393400502687,0.953883328803487,-0.667137797452601,0.0138605093362699,0.0667339807351837,1.22378916890853,0.0794672185878171,-0.487820128527296
364,634,11.2709800177348,-0.37660574079698,0.953882693905444,-0.648034728584419,0.0369569606300955,0.0627096963846912,1.20362316184201,0.233729658333015,-0.40732445531872
365,635,11.2646396124829,-0.375052892494276,0.953627596781482,-0.632398745283923,0.0685775999628283,0.0561989057811719,0.826538279208391,0.360746654985802,-0.348082777441731
366,636,11.2584979351969,-0.372858428626931,0.952949137327141,-0.619158199293788,0.102241162047019,0.0465407983285881,0.341138854368602,0.412201995302794,-0.26359183762811
367,637,11.2525532745526,-0.370159964614103,0.951921948824992,-0.607864061094821,0.133917258040683,0.0338108148429405,0.0264749816392884,0.215791904607906,-0.174338078659056
368,638,11.2465809215865,-0.367115996990201,0.950956304348716,-0.600242104305698,0.160928907104707,0.0209355464620408,0.11664523486937,0.150855193805718,-0.162991779186894
369,639,11.240409426814,-0.363789588958437,0.949804893924409,-0.598357229312367,0.189259550341305,0.00768660191554912,0.295611174433748,0.565908445554941,-0.130044269089143
370,640,11.2340134758494,-0.360253271158196,0.948545164650175,-0.603985787008957,0.215106618529668,-0.00819953718696757,0.335338657209897,0.59793190602751,-0.29074743460613
371,641,11.2275094848929,-0.356664784439205,0.947051871298922,-0.612326478744224,0.236563493756368,-0.0246295470076457,0.0591996708259364,0.462996198006518,-0.288903076756127
372,642,11.2210891442548,-0.35320435492816,0.945098764550829,-0.61713273256846,0.250324486738867,-0.0424204417659242,-0.0101139652236286,0.367852802178993,-0.298105125629395
373,643,11.2147393224526,-0.350090114201898,0.943191187444988,-0.619966894887753,0.258099431784768,-0.0591263204073488,-0.0199833040249437,0.299643864677272,-0.385138761891482
374,644,11.2084776745841,-0.347160157394782,0.941399065537114,-0.620480022520717,0.265955697917735,-0.0762861351070159,0.0228337968626076,0.114852826751666,-0.639125856928319
375,645,11.2023063411063,-0.344350402085878,0.939468411982883,-0.620050477203474,0.272880130359077,-0.0941580338543667,0.0980223474743501,0.0939323804885337,-0.802224950901973
376,646,11.1961868575469,-0.341655598689707,0.937577317351054,-0.619556854491139,0.280583732737801,-0.112562676279521,0.183773617258057,0.0502278746392209,-0.989554825042557
377,647,11.1901717923146,-0.339096451499902,0.935472670695324,-0.616469160411905,0.289352888642781,-0.131180011252221,0.277884501364748,0.220188140332703,-1.06217559727047
378,648,11.1842929228119,-0.336690045807883,0.933685018900678,-0.610169963728967,0.296589550507199,-0.145489445094053,0.37433402864076,0.431615204752977,-1.02749855031917
379,649,11.1785858368133,-0.334342805696634,0.931942802323032,-0.598927647271011,0.30207223198636,-0.156724279321101,0.481492121789025,0.615588185941492,-0.947049770393733
380,650,11.1730723023261,-0.3319971958214,0.930238837039819,-0.5850168997395,0.30606111986337,-0.16734575343634,0.545219218314358,0.566690209107577,-0.993336132432086
381,651,11.1677838014207,-0.329678962009482,0.928517343913269,-0.567487696703859,0.307664600118465,-0.176592978978553,0.422479682217678,0.497887284523979,-0.975767272188259
382,652,11.1627207589403,-0.327480758044685,0.926711315301599,-0.547571974208517,0.30502462250482,-0.182733422829002,0.165010221827437,0.623511453236238,-0.813589648156877
383,653,11.1577930714874,-0.325284711971728,0.924909605303241,-0.527084711424848,0.303873359531764,-0.188743809123964,0.00996331945064175,0.71021826915256,-0.832175348822153
384,654,11.1530217583505,-0.32309570199684,0.923093795443875,-0.503297344980583,0.303928714057097,-0.193025937349555,0.168201859269325,1.05121440061094,-0.769801988893022
385,655,11.1483725234814,-0.320820735372893,0.921323228417993,-0.481713014723187,0.305317389059383,-0.196745230988877,0.400086071995517,1.13508767628885,-0.584832649071302
386,656,11.1438440950589,-0.318397127267751,0.919471941906962,-0.464522783008274,0.308055693548263,-0.201299707100918,0.101461222847599,1.0389845324164,-0.474701792905508
387,657,11.1393647264121,-0.315820033430984,0.917540054512462,-0.453440753608975,0.312739497251335,-0.201585450814067,-0.28917301520059,1.0507688089284,-0.505881085787212
388,658,11.1347037051549,-0.313085351865126,0.915641119947025,-0.449594678911948,0.318940051762614,-0.190385363802277,-0.223081872961775,1.6315937040881,0.304053773386619
389,659,11.1297567253421,-0.310191952347046,0.913822334992536,-0.453960926704884,0.320100151065768,-0.173731126931262,-0.472409442626952,1.56531237135365,0.691053247268033
390,660,11.1247008041379,-0.307161234999838,0.912078730080748,-0.450926445517202,0.302153957171663,-0.158965399951286,-1.24065850268288,-0.175760865914899,0.197940966192738
391,661,11.1195791480222,-0.304150332039394,0.910390485538028,-0.437071279996424,0.277315615754341,-0.157733323067771,-0.722617741814445,-1.61333648900467,-0.79847364329062
392,662,11.1143891051238,-0.30136920590656,0.908567893357427,-0.433563478343588,0.269268012610051,-0.168536620860233,-0.534623592855128,-0.488020779387929,-1.23970588796033
393,663,11.1090766426228,-0.298715894083557,0.906515794956595,-0.442791268693712,0.281368938941292,-0.192412325558049,0.167047013395898,0.399237076245648,-1.64726913288367
394,664,11.1036416631095,-0.296176829292638,0.904085299907575,-0.458462452077663,0.305751158958063,-0.226318742968742,0.435030194843732,1.1764943821867,-2.01963258389179
395,665,11.0984367714819,-0.293491614134791,0.901460079215457,-0.459883797078341,0.326708813228748,-0.252083401920597,0.413767440843031,2.26360730556448,-1.16301160051901
396,666,11.0935698729023,-0.290768609243766,0.898662025515564,-0.441200714673182,0.339839502080144,-0.257887668449901,1.29511800435456,2.07219256867541,0.766156513634063
397,667,11.0890862072822,-0.287808021717559,0.895774281957953,-0.420684558950142,0.338655874708983,-0.242408685558725,1.2399200176087,-1.0650865267327,2.54738745595439
398,668,11.0844747478861,-0.285046700172114,0.893260416547473,-0.421762756771556,0.33201728183474,-0.187279625535516,1.26691773586717,-0.773803719933135,5.03910297093641
399,669,11.0798923184091,-0.282746385334357,0.891210657411778,-0.443565214458296,0.315872180860505,-0.116076181159025,0.837231633921823,0.217811686119749,6.36811871243711
400,670,11.0754731250463,-0.280664628398228,0.889720968419083,-0.471306682084021,0.284611733984724,-0.073605630754353,-0.00679579748856701,-0.692530761905745,4.45108300357815
401,671,11.0714316613018,-0.278788078759714,0.888595999378382,-0.479161267679258,0.248377342893131,-0.0517410711384018,1.0715487182162,-0.553243481599744,2.93397788935555
402,672,11.0678502265217,-0.277067533660046,0.887635425981618,-0.470205448635141,0.217679711603489,-0.0438078687174744,1.59419662665273,-0.168130002702307,1.73568342037168
403,673,11.0647166906682,-0.27554029051235,0.886873868515056,-0.461670414730526,0.197280870050361,-0.0405205966040568,1.24858113884039,0.385581791875114,1.20317527248542
404,674,11.0626442737234,-0.274101945219711,0.886869570245746,-0.433738565072001,0.185411078560753,-0.0415284411380716,0.444586554579344,0.573560285582704,-0.138169026886713
405,675,11.0603559540047,-0.272763743467337,0.886729665033802,-0.416664996381128,0.180470851955324,-0.0531733225526844,0.0335764413456863,0.704534371614193,-1.0151804830757
406,676,11.0583480074509,-0.271630640931425,0.887093410850461,-0.394281730500077,0.173288946613298,-0.057774062575365,0.160879398897495,0.664773660850421,-1.17739967628056
407,677,11.0539283741499,-0.269168275800547,0.887729275271344,-0.386805880513128,0.173645083376429,-0.0570557074735023,0.375747180887603,0.00448413078342018,-1.17396258754127
408,678,11.0509294345444,-0.26788606581702,0.896953438852737,-0.371355759606889,0.160060030913648,-0.00827169132684263,0.183448752856084,-0.713101447841744,-1.07056131738479
409,679,11.0470005424565,-0.265996821102743,0.903606022575434,-0.371041957757493,0.148984718755772,0.0272990603982989,-0.342160531434938,-1.42911810469922,-1.12440972201709
410,680,11.042310506974,-0.264138171515514,0.909064457255986,-0.385998978235632,0.140686324079954,0.0531483150375475,-0.388108156775881,-1.3390542851273,-1.18389092990853
411,681,11.036069524951,-0.261665673216463,0.913945448222321,-0.4217000200301,0.145553908573574,0.0760415071985883,0.092846588397877,-0.875991247783852,-0.890171615253054
412,682,11.0290099113539,-0.258714341465381,0.918513657015205,-0.466512538631766,0.159431026966092,0.100087080738648,0.270963755263027,-0.737466133642268,-0.409628116550774
413,683,11.0216693639019,-0.255345742892819,0.922810075732799,-0.508386793958992,0.181119853511048,0.121576427146805,0.651080917704876,-0.529755680571397,-0.190215075697799
414,684,11.0145806791563,-0.251754247143463,0.9267963991897,-0.541411353601076,0.204110684018107,0.141781469333003,0.423689285473568,-0.381857131496688,0.0887199854299328
415,685,11.0078360515242,-0.248006310543255,0.930439327651572,-0.571735696956887,0.228341464592621,0.156648763724661,-0.0689217883427654,-0.286356769199563,0.119648855246676
416,686,11.0012725961679,-0.244289459689437,0.93372092730482,-0.598145296200948,0.250054239989099,0.163778159137327,-0.467532329548199,-0.391627140964797,-0.143297594372955
417,687,10.9946899643521,-0.240734981178222,0.936634404569123,-0.61996399311059,0.267032509219546,0.166408777008539,-0.617059962863117,-0.22636560161475,-0.308313705130304
418,688,10.9880426598966,-0.237332550488166,0.939171987516541,-0.637301873623736,0.280434971361503,0.164880150619651,-0.596688224825062,-0.154292814098821,-0.400929621054555
419,689,10.9814500257112,-0.234009654120769,0.941338069748742,-0.647172503666071,0.289817003779092,0.159553309397948,-0.522624787246661,-0.0505084540221331,-0.545731389010864
420,690,10.9750313537308,-0.230815041642989,0.943148826876837,-0.650387394046452,0.292720213509104,0.150676028950691,-0.554860380336418,-0.0649465653262659,-0.757960360387855
421,691,10.9688965353413,-0.227801287182663,0.944629028892882,-0.646090087554979,0.288540596606203,0.140141247687801,-0.614339687892493,-0.39228446444201,-0.83664802043484
422,692,10.9630965569885,-0.225062710213414,0.945823797369342,-0.634713224271602,0.278604183113514,0.129637378985552,-0.378596877570977,-0.283543004971839,-0.833774089228534
423,693,10.9576080343597,-0.222589143926541,0.946769008383404,-0.621374100406007,0.265658947897023,0.116546395297553,-0.338515806475525,-0.372769224689293,-0.923265339375937
424,694,10.9523674489278,-0.220357793699282,0.947497487504999,-0.606046883468636,0.24897683021696,0.104030234745557,-0.34682986854048,-0.415067175783723,-0.875093405508093
425,695,10.9473100695587,-0.218340007466024,0.948038350382774,-0.589946929848552,0.231252953186944,0.0924113137258246,-0.423147577722586,-0.459798765522786,-0.724981702462443
426,696,10.9423570682807,-0.21653448830261,0.948423250742285,-0.576878911689301,0.211201152175491,0.0812452390171734,-0.56515866333228,-0.549004848262641,-0.6691650301195
427,697,10.9374674005575,-0.21490728190567,0.948682469922051,-0.564069935731478,0.190576577574774,0.07053997396644,-0.628905594003841,-0.815617861894653,-0.621803650937936
428,698,10.9326094486929,-0.213408352559347,0.948831063960023,-0.552123338785066,0.171405716730413,0.059979845107211,-0.554099261969834,-0.930824267164215,-0.590833492130207
429,699,10.9277663818445,-0.211958806766423,0.948875370552004,-0.544476541296348,0.15649303687454,0.0497303536224653,-0.661454315070068,-0.833353594216021,-0.517398475792952
430,700,10.9228831501503,-0.210520171358854,0.948822297128713,-0.540781558410178,0.146122744148078,0.0394452591403384,-0.883165562161165,-0.756224283138892,-0.469219285074534
431,701,10.9179202344536,-0.209081555526592,0.948674595630783,-0.539842079335348,0.139893116533634,0.0283257365555961,-0.886023709029125,-0.674017074785557,-0.544243812911588
432,702,10.9128968212629,-0.207651452989246,0.948448894763853,-0.539674388393048,0.134038902277968,0.0186121469875582,-0.9839276919942,-0.819239805464352,-0.499042962128115
433,703,10.9077680192067,-0.206214399779484,0.948151601185155,-0.541258851214802,0.129943789687532,0.00931765030577659,-0.950851831345669,-0.824316874859881,-0.486033523329351
434,704,10.9025485628481,-0.204766316289774,0.947777978785083,-0.541961591859499,0.12581327127521,0.000865739961983166,-0.944268877266335,-0.6761455321519,-0.460016783830614
435,705,10.897322464459,-0.203293177497562,0.947351010784194,-0.542026341620827,0.1234142302209,-0.00663825750197971,-0.827421722585257,-0.534567965076644,-0.378871682039179
436,706,10.8920646213963,-0.201788400253567,0.946992403022193,-0.543457667968162,0.119890147475372,-0.0147609386549748,-0.790235705906251,-0.663796785576683,-0.560221879408194
437,707,10.8867869775863,-0.200307422386627,0.946696487855533,-0.544442650686068,0.116335905399444,-0.0231429478925688,-0.647539647104116,-0.616677912170627,-0.704829273041555
438,708,10.8815263946994,-0.19888863773171,0.946390360961504,-0.544113691397978,0.112383121609074,-0.0296035342291742,-0.746761285084775,-0.490469365210477,-0.6694045256537
439,709,10.876289883236,-0.197542463392535,0.946064868601977,-0.544732960603926,0.106722887757813,-0.0350515278011756,-0.74046465776748,-0.435483654314426,-0.621930781645724
440,710,10.8711286908693,-0.196302900133917,0.945719691366491,-0.543777503218241,0.101034209881865,-0.0396568389370956,-0.643102680281904,-0.498769105276984,-0.530056003712201
441,711,10.8660743213079,-0.195199204727989,0.94536163700639,-0.541463799805748,0.09343687891929,-0.0426749842265378,-0.649041778425513,-0.448852156084114,-0.384423687329967
442,712,10.8610811425639,-0.194228954651368,0.945000963406807,-0.538646855759041,0.0846413534713429,-0.0422705973818561,-0.521427758126662,-0.56910341882248,-0.0159635131649699
443,713,10.856064186286,-0.193389943550002,0.944662608768391,-0.538557712109822,0.0768174472631376,-0.0359181768005005,-0.397279784859534,-0.7206210793396,0.67326707069513
444,714,10.8509365747875,-0.192673661912702,0.944417218335241,-0.541651163570211,0.070701870948017,-0.0139602832403671,-0.0833614657029078,-1.01630920006452,2.32707474453691
445,715,10.8457100148202,-0.192040098039076,0.944404269671626,-0.542732557299352,0.0707928953045402,0.0217456678119463,-0.155594994808158,-0.666906083815484,3.59239530615024
446,716,10.8403613746398,-0.191360415767543,0.944632156450877,-0.546244247565509,0.0841958180645982,0.0618600186682411,0.0749065166066257,0.125614439790647,4.27708519834517
447,717,10.8348473559329,-0.190679730574048,0.945045653448517,-0.552135992862047,0.0963503543796881,0.0873252899784234,0.723194589437423,0.40007597042543,3.31410804241992
448,718,10.8291810296705,-0.190153490434439,0.945533551333365,-0.559368974293756,0.0916354162056461,0.0954694337465175,1.10466475657814,-0.062201830621119,1.91898489176064
449,719,10.8234084120324,-0.190035168241241,0.946056190475357,-0.562698711398547,0.0669935727265361,0.10228141491116,0.520271781136739,-0.614043852227977,1.43089749825746
450,720,10.8175418803993,-0.190523156412389,0.94667564264962,-0.565910075059414,0.0306778814839061,0.110611402320241,-0.484504276054425,-0.880106584319892,1.28097500232847
451,721,10.8115091915978,-0.191644975424642,0.947402523689746,-0.575738605474063,-0.010115958369808,0.116932982766377,-1.75554173276399,-1.17359311271262,0.906375363679435
452,722,10.8052306718896,-0.19325228924278,0.948240506060283,-0.59203965739864,-0.051049062957205,0.120955765039728,-2.34479420836604,-1.87819441276996,0.699982638863382
453,723,10.798696084049,-0.195153236814513,0.949183318408843,-0.610629978504614,-0.0806283530935088,0.117431571416204,-1.31990480374154,-1.42856514005099,0.0641248343482501
454,724,10.792001273711,-0.197359243697637,0.949873149255005,-0.628092603413265,-0.0981015457542262,0.10447303646687,-0.265645169562623,-0.185195968825323,-0.394776362043813
455,725,10.785189323434,-0.199559045774868,0.951008856760834,-0.644856864312688,-0.104411870362802,0.0952772279932125,0.4022202830772,0.538766120640082,-0.679629309501128
456,726,10.7771683728534,-0.201943309398504,0.952282076641587,-0.669789773631452,-0.106553256322818,0.0865645185494113,0.716453598592284,0.757277352944809,-0.812503576639104
457,727,10.7703996836364,-0.203530195964622,0.953741000706384,-0.676041043446199,-0.099220827199184,0.080751605985605,0.815394230881324,0.395358873735053,-0.798673758509865
458,728,10.7636875713865,-0.204631906665303,0.952778523409928,-0.672134176573579,-0.0867694889886186,0.0666821208822273,0.867123698073653,0.104973995595189,-0.64018390740313
459,729,10.7573600139472,-0.20517527425633,0.952462297702017,-0.65794030440982,-0.0670175101018931,0.0600389509877149,0.950140637773329,0.147150485171988,-0.429863768343426
460,730,10.7507998509016,-0.20517318934689,0.952221926038699,-0.648739659619884,-0.0387283205471361,0.0568984101827527,0.890951585488213,0.68535326221477,-0.161682504604641
461,731,10.7439516708401,-0.204374616222089,0.95172512524983,-0.646035460953668,-0.00319741818834596,0.0526053381999684,0.676195915928771,0.956273040031778,0.0266681997823423
462,732,10.73698770472,-0.202815567413728,0.950843292671376,-0.6462758389277,0.0337282640519445,0.0438592799143319,0.521100857299936,0.759135292041189,0.0170574260445236
463,733,10.7301143296032,-0.200661774236677,0.949614407619905,-0.645928443300492,0.0662064373666718,0.0292356429373484,0.480060643479782,0.274489780629569,-0.128470181224515
464,734,10.7233469056695,-0.198050878461733,0.948183516471346,-0.644187703201077,0.0973525323930335,0.0116196328626724,0.532864602551556,0.142067051855918,-0.263371357597741
465,735,10.7165944676047,-0.19516011037735,0.946645348796291,-0.645369746934987,0.126373927920471,-0.00472132782856789,0.400557244178353,0.286125584387127,-0.200015474327984
466,736,10.7097972256878,-0.1921685183769,0.944963140769222,-0.648425346358679,0.150033070495653,-0.0220976915665211,0.0847447308181857,0.328442455413316,-0.316813602073844
467,737,10.702953952705,-0.189293024740409,0.943258922386465,-0.654580234078355,0.168606314915147,-0.0368792963672099,-0.286104968696422,0.293578246120102,-0.200921578577719
468,738,10.6961013295916,-0.186595874331243,0.941165071622631,-0.659900726593195,0.182938814216324,-0.0524121875762865,-0.351011497699842,0.349739738677057,-0.146051566211539
469,739,10.6892014156485,-0.184092212064102,0.939054468306488,-0.665361495699514,0.194973054264331,-0.0702343071480069,-0.0446612442378372,0.443135683120159,-0.374991678912867
470,740,10.6823102273788,-0.181617224874668,0.937012868710088,-0.670365721633021,0.20952795058251,-0.0886508990374309,0.148230674031638,0.315737616833028,-0.576631362433019
471,741,10.675411989734,-0.179142318486438,0.935336482446638,-0.675821311272718,0.224935209050151,-0.105119123250362,0.333792018678081,0.229365739482241,-0.795774548487027
472,742,10.6685903153358,-0.176718939035259,0.93354890189225,-0.677746000464009,0.239202105132988,-0.12122592094541,0.366175806930189,0.204571535702592,-0.898156761772455
473,743,10.6618523747567,-0.174332168421852,0.93170890054033,-0.675354176964397,0.251453787329412,-0.135710861050867,0.406100586013431,0.371284691614405,-0.900568099413911
474,744,10.6553073702897,-0.171979047796246,0.929814303914031,-0.668727901075642,0.264422800802508,-0.149580477534352,0.502656014960492,0.619471021981133,-0.936327202337828
475,745,10.6490272105721,-0.169695294913002,0.927905856087098,-0.657952670611589,0.274591753332536,-0.161717657317213,0.49078264185069,0.776864753688089,-0.91947384702705
476,746,10.6430223373641,-0.167442697285969,0.925983812300595,-0.643277803918041,0.279973361892366,-0.173024519545126,0.368628827394524,0.725974878785839,-0.991370644854117
477,747,10.6372477262955,-0.165251984345358,0.92410558600079,-0.626829966724583,0.281753799263506,-0.183439998280191,0.307561039283863,0.820315226673283,-1.00599861373881
478,748,10.6316575301242,-0.163151362340303,0.922105246454423,-0.611013287787754,0.283619965347787,-0.194073412268709,0.184251883427922,0.963471078379399,-1.01431263992379
479,749,10.6262102960268,-0.161107498261991,0.920165624640879,-0.594269169827514,0.283270247678661,-0.203065149270314,0.0962624768025654,1.01432059488065,-1.01503016394502
480,750,10.6208915714793,-0.159111665282302,0.918152140053367,-0.575519990489668,0.283435913998377,-0.211521868611243,0.0429497018570009,1.03225247783338,-1.0362859730524
481,751,10.6157225423396,-0.157188293600092,0.916036996795315,-0.553223066547163,0.282310508930644,-0.218822605956149,-0.0645474621457353,0.98909114601061,-0.990590225653808
482,752,10.6106056251123,-0.155261441840305,0.913993013369948,-0.533250956896986,0.281556162865326,-0.223356095338445,-0.331554598781019,1.02974268916527,-0.720465079378717
483,753,10.6055001127696,-0.15326589721297,0.911883664488824,-0.515720491569397,0.286632403331703,-0.225251505945683,-0.0484568633491246,1.29839612896613,-0.254891714417193
484,754,10.6003309227871,-0.151124300514804,0.909824509280948,-0.50753927197927,0.293069147158501,-0.22128566668676,-0.189007241899061,1.33316698969367,-0.196542549023361
485,755,10.5949274636887,-0.148947996320678,0.907773891521855,-0.504757887015685,0.295732329536569,-0.205097235315627,0.0334062287296452,1.64204658624369,0.580677499980875
486,756,10.5893293577356,-0.146760761738329,0.905766808248495,-0.508091355329166,0.285207570770254,-0.185699934571518,-0.599871683095778,0.764758381148344,0.647777876181946
487,757,10.5838145356993,-0.144578321990596,0.903807212221864,-0.502389837881929,0.252520140265559,-0.17758435826942,-1.55806590639994,-1.65143736952495,-0.429514617192019
488,758,10.5784379800787,-0.142580020924367,0.901890596584102,-0.484618934480586,0.224310175488528,-0.181398163346081,-1.25255515251179,-1.86697467023354,-1.16847185816861
489,759,10.5733100836774,-0.140756784684647,0.899878534981088,-0.467516737827393,0.217514442873388,-0.187914585914153,-1.20151275453907,0.0809588962522652,-0.948470776318342
490,760,10.5683002684563,-0.138822953906705,0.897680968586603,-0.460538904449161,0.232221339862122,-0.207029655916776,0.338258446490236,1.54437896053595,-1.10301168136486
491,761,10.5634722375362,-0.136760708616066,0.89512073289856,-0.458866733904737,0.250363653863233,-0.227855150567741,0.664072940664195,2.27775862386289,-0.409363404918663
492,762,10.5588619032335,-0.134628930324545,0.892407077330951,-0.449835701040803,0.265885034855483,-0.228535120988028,0.959199176208733,2.01016156249247,1.53855529239217
493,763,10.5544451818334,-0.132273703312507,0.889863400531463,-0.441641414076206,0.263777298803815,-0.210632283364013,0.312981078861476,-0.508333470050814,2.79045843172589
494,764,10.5498520579743,-0.130075346684522,0.887591542570301,-0.447881625148292,0.257498043828877,-0.165842288103921,1.12320984758352,-0.322874787575704,4.35654515625466
495,765,10.5449880731109,-0.128285969216285,0.885645500111867,-0.467770285163243,0.25256175450192,-0.104190975146028,1.74640501583754,1.01154038093633,5.73975462622554
496,766,10.5392559382529,-0.127447808357006,0.891082832153026,-0.519057151031543,0.211526335832531,-0.0224074455271946,0.948230574672108,-0.521671006315719,4.22742711009558
497,767,10.5360941116676,-0.125889719470965,0.896926276476099,-0.513629826965997,0.179132635889226,0.0381405928041951,1.20372163148863,-0.554144263514578,2.73194078149189
498,768,10.5318420904948,-0.125549788500134,0.896070658610474,-0.511062150104951,0.136349559539896,0.0451685633158843,1.48780132544821,0.40237272807453,1.8321693294622
499,769,10.5277294404144,-0.125349228328946,0.895149201854095,-0.513275688929171,0.100627420462415,0.0403871287371144,1.04298018348275,0.635693193072761,1.1063214795571
500,770,10.5236817582907,-0.124770274739499,0.89419298564599,-0.508154686605078,0.0813100659878541,0.0234120440811056,0.599270229020358,0.550435470920116,-0.209737978853862
501,771,10.5199253807184,-0.123538596286535,0.893261948436062,-0.490471602237469,0.0824598132739532,0.0009665286142298,0.561098525351883,0.630421686762496,-0.97349602606955
502,772,10.5168502636096,-0.121898947117828,0.892067086857919,-0.46127502413014,0.0921414649824584,-0.0187196518522251,0.207127112085944,0.480467091675954,-0.971975581676069
503,773,10.5137601254714,-0.120445310781651,0.896998166355565,-0.441789833822068,0.0949933740413082,0.007330386891723,-0.174972357741364,0.0403144850000205,-0.954993054317493
504,774,10.5091616330935,-0.118727926574738,0.902565549596649,-0.439991144105855,0.10259980823207,0.0327530735613345,-0.455824020665654,-0.221661040766222,-1.13848971112269
505,775,10.5050303190931,-0.117458054864101,0.907229916171065,-0.438571622824491,0.0991867275836633,0.0491723760441193,-0.646876387274567,-0.74776146769572,-1.4076422674631
506,776,10.5004032660584,-0.115963539592169,0.911481880575071,-0.44031362054636,0.0947282461083633,0.0591085122319903,-0.489867789880289,-1.04559374823744,-1.69778233019246
507,777,10.4949711386614,-0.114657013436177,0.915498880095574,-0.453959707562041,0.090378371633822,0.0687362870896243,0.048609840798385,-0.762885384213581,-1.52397989721316
508,778,10.4882111320251,-0.113151772076818,0.919434633093252,-0.485133977383834,0.0914607740380595,0.08443041327741,0.457939539744864,-0.740861089545191,-0.886175455124357
509,779,10.4807898911861,-0.111395385564277,0.923264942075715,-0.520448501312136,0.097294577075005,0.102960679923844,0.774613494725704,-0.710507647034039,-0.453674795454528
510,780,10.4733903769869,-0.109271938280272,0.926876785082314,-0.554768924714411,0.111053659821725,0.119771735389709,0.337771564550466,-0.525900983275406,-0.217477896893768
511,781,10.4662908503911,-0.106844547235114,0.93021032150013,-0.58498167379406,0.129780659554237,0.134277204053823,-0.139424179174525,-0.449211383002868,0.0412058862774659
512,782,10.4593492548607,-0.104173221842291,0.933238446845133,-0.61304264998271,0.151874988526461,0.143018636277309,-0.472021136611095,-0.450184366734281,-0.019834701700581
513,783,10.4523858538582,-0.101336614156794,0.935950494487386,-0.638214355853621,0.173142066977268,0.148268932804928,-0.576577131211658,-0.287977668859956,-0.111588245113417
514,784,10.4453592257355,-0.0983619076699685,0.938327424090548,-0.65847201395797,0.192890873357548,0.149873940703005,-0.639415489284272,-0.174627662345759,-0.215770751778121
515,785,10.4384107049115,-0.0951955628086752,0.94036660979491,-0.672177001865825,0.210953719467268,0.147359813110157,-0.504874883357594,-0.0856307458474909,-0.295663239551468
516,786,10.4316820565413,-0.0920060595061804,0.942050907852065,-0.676798877886696,0.224506178504949,0.141734966716562,-0.442638897015457,-0.233808723421288,-0.420131806097189
517,787,10.4252354861303,-0.0889094337355835,0.943430926844248,-0.671407261225985,0.231844431763508,0.13515645857645,-0.218667754003991,-0.335851637769214,-0.420979114540765
518,788,10.4190859411089,-0.0860291100188843,0.944533575872061,-0.662594414130647,0.233112696567392,0.126972420239654,-0.225217320103974,-0.297267952877355,-0.436243683930089
519,789,10.4132039104566,-0.0833600699749807,0.945407398381016,-0.650652848835621,0.229222677541743,0.118960069802938,-0.331643879566844,-0.382097045465099,-0.440401348939593
520,790,10.4075105742842,-0.0808878574235278,0.946079829805918,-0.638292630976745,0.222170794953323,0.109436328148701,-0.355082003338593,-0.436748064707853,-0.489122129993016
521,791,10.4019446815553,-0.0786250232299688,0.946561401643519,-0.626040681917776,0.213235950041572,0.0982429353634568,-0.346089767319624,-0.471317725617988,-0.558329994820849
522,792,10.396474582596,-0.0765874131760033,0.946870271252919,-0.614181477979796,0.201339592045019,0.0860729812435127,-0.39183737487541,-0.590657044638358,-0.614460167973118
523,793,10.3910941909554,-0.0747572315115998,0.947035080346901,-0.600857633109211,0.187581599628079,0.0742276956527608,-0.466394603583316,-0.74897942457775,-0.614428373369921
524,794,10.3857921654622,-0.0730903617979029,0.94714076955985,-0.587083287757439,0.173740286507047,0.0643441687683392,-0.51948848111783,-0.740529493125805,-0.574833609973842
525,795,10.3805175266206,-0.0715836260294411,0.947333126523756,-0.57783083927202,0.159283185557794,0.0545853354677479,-0.576695035423411,-0.67462122759036,-0.637390962260725
526,796,10.3752212872825,-0.0701855497041334,0.947473234547922,-0.573420287633993,0.148400037556153,0.0429111975511294,-0.662050094832875,-0.654991941015516,-0.781897535878017
527,797,10.3699253609452,-0.0688269821401531,0.947561144356527,-0.57034792629114,0.139653476235927,0.0315181355374037,-0.772003442332668,-0.578588954196295,-0.854865853181718
528,798,10.3646296516344,-0.0674723500895255,0.947587839686632,-0.568473535984277,0.132616546259926,0.0203730657415434,-0.92626111243769,-0.514210736204845,-0.939573544465014
529,799,10.3593173933369,-0.066116787525731,0.947553857451242,-0.565953323206522,0.126199007370337,0.0103488935843261,-1.02064933423541,-0.482844685042766,-0.942774086974152
530,800,10.3539658830359,-0.0647800917696337,0.947445720956649,-0.566430229286823,0.119983939750831,-0.00226396541205398,-1.05627206361924,-0.489843948073436,-1.16103077515712
531,801,10.3486066414231,-0.0634814095140327,0.947246611881216,-0.565497192909656,0.113190498021912,-0.014503598508517,-0.843478116914798,-0.575482254749363,-1.13425256944462
532,802,10.3433188154655,-0.0622893039219246,0.94698074807105,-0.561207012736039,0.104212566510062,-0.0235864285329502,-0.745614914148018,-0.442411875627726,-1.02242121502289
533,803,10.3380997456726,-0.0612185569750997,0.946649819934501,-0.55926815933003,0.0932730899194117,-0.0331736244620315,-0.62383505336734,-0.518219437013912,-1.03568072052857
534,804,10.3329476968355,-0.0602665641657752,0.946236767849848,-0.556305973038584,0.0846629149606946,-0.0430216316384582,-0.522377300761102,-0.538718264212645,-0.966161522768668
535,805,10.3279093932922,-0.0594303927052061,0.945758462724783,-0.553400160977436,0.0754467731185154,-0.0502567744557903,-0.551453236892802,-0.555198958212328,-0.684488297336866
536,806,10.3229512746771,-0.0586695727584952,0.945241661872276,-0.54923411894461,0.0675474692196485,-0.0528420565413276,-0.346718139285801,-0.767274736964841,-0.155251159361955
537,807,10.3180066596898,-0.0579743317122374,0.944736540469121,-0.543598204176118,0.0620732520546289,-0.044781484246442,0.120843273873611,-0.698616727055382,0.946355999063903
538,808,10.3129626547018,-0.0573115611169278,0.944327187738464,-0.541568623937291,0.0593273719436551,-0.0181104772826238,0.376883199748069,-0.888362263857957,2.86687178709337
539,809,10.3078419540601,-0.0566306963150981,0.944177690986847,-0.54189341391342,0.0644248111633124,0.0265401145802349,-0.401555078007309,-0.50752091977832,4.55813972383821
540,810,10.3026083867493,-0.0557799069934229,0.94437527483858,-0.543458256858882,0.0856560723886419,0.0721354144113109,-0.451013873613767,0.528163831315126,4.81919258509121
541,811,10.2971406850886,-0.0548570270898064,0.944817305597647,-0.54835478271095,0.104903173709048,0.0982537828613989,0.306511266303058,1.39898871245342,3.42214912070846
542,812,10.2913795792115,-0.0541011688913103,0.945332697072048,-0.554604681678774,0.101782302963462,0.100093197689465,0.975660558909874,0.747214910283862,1.43225833370721
543,813,10.2853479205319,-0.0538641497220774,0.945877543611422,-0.557113912689428,0.0749233507491886,0.101555909094951,1.18970404205223,-0.107393327904363,1.05423551834533
544,814,10.2789960340851,-0.0543484558223433,0.946568039179203,-0.564544816416024,0.0359728238935951,0.109841564679322,-0.0566849073849614,-0.583278155890712,1.08271838631859
545,815,10.272278468665,-0.0555230197193766,0.947466780820747,-0.587858007191007,-0.00534470420816937,0.118692447102613,-1.91925090805702,-1.02984616495216,0.845717872271836
546,816,10.2652349655963,-0.0571743310906674,0.948538323171347,-0.623500300016607,-0.0433110029199036,0.119362758112711,-2.79238422249119,-1.57158556654647,0.208502187306507
547,817,10.2580829291224,-0.0591101645312759,0.949751692597159,-0.650730308822878,-0.06790469880372,0.113438321728419,-1.79551062276614,-1.01279530253974,-0.45517939032036
548,818,10.2512203740734,-0.0612625678159546,0.950727216195084,-0.662774159947948,-0.080047236573134,0.0953970943629335,-0.143426120486401,0.0969321588572818,-1.14291054685148
549,819,10.2446001806328,-0.0633269551438072,0.952230521097292,-0.670319882849185,-0.0817761622619289,0.0822430428268458,0.740716863401228,0.0664094491866889,-1.43043924033233
550,820,10.236560396442,-0.0653588463764087,0.951039781263561,-0.682000544378663,-0.0827166876324124,0.05655012798552,1.25764956322308,0.0184463324268219,-1.42638487737705
551,821,10.2301704805145,-0.066692273569586,0.950632793283406,-0.671365609971439,-0.074022554620842,0.0407318900734774,1.52895741290825,-0.241019063524704,-1.09978203510606
552,822,10.2233406197366,-0.067520782694916,0.950350041440767,-0.661597433887281,-0.0585584177697712,0.0359315208850106,1.03743200219395,0.0961765539473212,-0.485785015490736
553,823,10.216465526644,-0.0676898847815306,0.950216694513322,-0.654319314377656,-0.0315376617938989,0.0368304866095447,0.909247726220344,0.76256476609054,0.079407965490032
554,824,10.2096622391915,-0.0672805459630236,0.94960656415221,-0.641588872050548,-0.00176944363612225,0.0370590657069891,1.08309709905104,1.08368714516549,0.376481726544128
555,825,10.2031716801761,-0.0662872526696056,0.948373753761299,-0.628816648659451,0.0217522949051065,0.0329693760827184,0.715112713313647,0.730420487268311,0.524086696687118
556,826,10.1969638867934,-0.0647906103968581,0.947042266018379,-0.617974349781711,0.0376286109116673,0.0235838919113612,0.314057942471313,0.0267191096593372,0.288184520969254
557,827,10.1907278947099,-0.0627690134768514,0.945644749570209,-0.60921998609404,0.059006325493471,0.0117318604619575,0.667606588879173,0.20790656013987,0.139029998441827
558,828,10.1843305333517,-0.0603714913106777,0.944439512370143,-0.6100480918066,0.0861787138196888,0.00357434469465226,0.522678912099834,0.571582238589213,0.365644642344245
559,829,10.1776748877059,-0.057582804212408,0.942941158140999,-0.622547996387455,0.115312078035029,-0.00414323670389968,-0.10788080137646,0.67857964148637,0.515604246720291
560,830,10.1707621849243,-0.0545936333367896,0.941424774156132,-0.639390788411954,0.142037830550654,-0.0125977017753038,-0.331148401250164,0.653364867446077,0.456694413095989
561,831,10.1636365903266,-0.051479060753085,0.940082509650871,-0.657490144311054,0.167736782692129,-0.023379881362008,-0.369201404137345,0.340896227687408,0.167270783692558
562,832,10.1563869137743,-0.048318469396028,0.938462526704962,-0.672375881930216,0.191509802852855,-0.0389266894435655,-0.151189708439474,0.0897521104288269,-0.191216925314325
563,833,10.1491077773277,-0.0452306514951571,0.936877259476484,-0.682443963543413,0.214036230870404,-0.0572569492722424,0.216701085784717,-0.0957582877096862,-0.547244571333556
564,834,10.1419033674307,-0.0422457959533348,0.935160291573938,-0.686121074332515,0.235704136416349,-0.0780966575634831,0.572757833632133,-0.0766204522429898,-0.864519527338565
565,835,10.1348490573959,-0.039345769204387,0.93324697230648,-0.686267994536163,0.257341007463123,-0.100195245698374,0.722340800670692,0.191836970040584,-1.01759899177738
566,836,10.128013415595,-0.0365588345077623,0.931258994535276,-0.682247307320636,0.277318722840362,-0.121180942469783,0.781164208824837,0.440233562022684,-1.10688745189407
567,837,10.1214772588623,-0.0338997918468535,0.929055766951721,-0.670244623952232,0.292048129908839,-0.141005662824094,0.950231494439461,0.545878865032353,-1.13580533984025
568,838,10.1152327808957,-0.0312753026144661,0.92683740602887,-0.653778835452632,0.303463876712878,-0.15850305433516,0.752403815439021,0.643428735115715,-1.14766241416537
569,839,10.109350814086,-0.0288144686407012,0.924579707325736,-0.6336294592462,0.309750909575466,-0.176168594978933,0.601730776131922,0.679449108021773,-1.26429186693551
570,840,10.1037527702259,-0.0264341749263913,0.922264162754329,-0.612419429753546,0.313539270300376,-0.194843204892565,0.470650323378659,0.805449228602712,-1.45041658966481
571,841,10.0984781257702,-0.0241897417896206,0.919896312725165,-0.587833052355365,0.312739297700576,-0.214305071016627,0.414181858474186,0.877616811676206,-1.63636087951056
572,842,10.093554907039,-0.0220848859971884,0.917497499215122,-0.560004581687242,0.30709722832143,-0.233378384603022,0.178861955489255,0.933158180778809,-1.74611538759007
573,843,10.0889683290188,-0.0201096034161328,0.915080160477222,-0.530672699051763,0.301676830347663,-0.249017722933131,0.0702937041305265,1.14692928254206,-1.45648849234455
574,844,10.0847110482225,-0.0182437967062296,0.912685435751508,-0.498675560104737,0.297503149451927,-0.257542701114697,-0.0225610663337018,1.43586245252382,-1.11970614688118
575,845,10.0806007756249,-0.0165853391348061,0.910314816868971,-0.478051868407994,0.291594794033053,-0.254726029361951,-0.429703709877189,1.76031666845593,-0.839268276563236
576,846,10.0763132515924,-0.0151052356428627,0.908232301635071,-0.465427273132456,0.280067826614626,-0.236823932423356,0.0100297255581167,1.98078367495337,0.292477298803953
577,847,10.0719161451663,-0.0138089660926588,0.906267051735347,-0.454451307088879,0.253399557823703,-0.216002075723319,-0.435887691586503,0.979755139710578,0.323628923628897
578,848,10.0675710067311,-0.0126072511045587,0.904471923591222,-0.434368853980823,0.208304169286849,-0.209670314404029,-0.831869937110444,-1.84430691938133,-0.835339830265056
579,849,10.0632391811042,-0.0115722120046121,0.902557411081842,-0.411824778623988,0.173709041083713,-0.213539757471429,-0.742710323482265,-1.78350420833222,-1.16605231451722
580,850,10.058939779951,-0.0106489743248907,0.900678933277796,-0.386527638436826,0.160962778821836,-0.216320270467965,0.0218237746145449,0.090419936080027,-0.790894727124033
581,851,10.0547328925601,-0.00963372664822341,0.898669014063162,-0.369777036571499,0.170810089554816,-0.220597208837588,0.31405368087988,1.7556431054031,-0.234019647612816
582,852,10.0506389882966,-0.00811978414373493,0.896488582995149,-0.370714694749002,0.19324792224122,-0.226918723365273,0.129562390954295,2.20068347815271,0.568928572783325
583,853,10.0464957954383,-0.00632183365612433,0.894178751956257,-0.374235313172016,0.2078223145664,-0.221081869425543,0.632637792973637,1.18972696746665,1.91692639051602
584,854,10.0422154517111,-0.00428535259186071,0.891918809314687,-0.378773712006754,0.203159220352724,-0.191206172125781,0.754289199563362,-0.805303445233753,3.54638116508615
585,855,10.0374781083624,-0.00248221515071893,0.890016356854502,-0.402800794143586,0.201434868379829,-0.130027465416332,1.16931508566294,0.286519362897702,5.48252257691719
586,856,10.0324755394214,-0.00105380737381454,0.888552788919875,-0.443229511760996,0.194020370691401,-0.0674136606494527,1.09760832805511,0.266512660196878,5.95342700538021
587,857,10.0275570844847,0.000209486532648005,0.887478458284734,-0.479183193995651,0.177844118559713,-0.0307361667755545,0.545028953367158,-1.44518578629825,4.43374867876783
588,858,10.0229459057295,0.00136241503872758,0.886658137769145,-0.488212962568998,0.16658735709349,-0.0149429127867258,1.23446616002956,-0.916860512573414,2.88359877337502
589,859,10.0197936385752,0.00157751070490714,0.885138521858148,-0.521226010985374,0.168339456531128,-0.0535935148867221,3.04373391213538,1.35083359960431,-1.07492326067297
590,860,10.0159331016512,0.002639764015298,0.88437700073608,-0.505106301330839,0.157226106141026,-0.0597996409985452,1.34666881878008,-0.502933820039467,-0.196094957017214
591,861,10.0130811587735,0.00431186473574922,0.88522352966906,-0.482511604663258,0.154292605337442,-0.0624645280001684,1.17110100437724,-0.342998516732062,-0.420125013563536
592,862,10.0101156384861,0.00551891600721452,0.88466605235758,-0.471247801921537,0.154167879543904,-0.0647430189079156,0.991717144439777,-0.239680883824863,-0.605955999740385
593,863,10.0062881499057,0.00747414322245078,0.884536983252522,-0.488583059369621,0.161207348812659,-0.0596206857665525,-2.23430635824146,1.00601040868864,0.643878130643924
594,864,10.0027984329736,0.00938023439436287,0.884996058205372,-0.48680125632663,0.160236731592454,-0.0586816040603387,-0.182665836868426,0.140045970331392,-0.00502832412062847
595,865,9.99744005162525,0.0125258614768395,0.885598347454579,-0.489592488060185,0.162351366417664,-0.0576375029205317,0.0222815887182104,-0.0103272788611174,-0.123597523621151
596,866,9.99327634057739,0.014742502331663,0.894835134399414,-0.464184297404253,0.189656463749308,0.0116704788671479,-0.0612032208688882,-0.0403929148393721,-0.230909304360731
597,867,9.98893690022621,0.016916585047172,0.901819223334465,-0.437976928979331,0.168230378519184,0.0712117314174162,-1.21116727177161,-0.575639330805066,-2.20957489674075
598,868,9.9838934571461,0.0187532900158815,0.907800575647134,-0.4407866559386,0.153547460841516,0.108991494635424,-0.536865586060401,-0.661750436996034,-2.33854974538032
599,869,9.9773012978459,0.0210900869277711,0.913371425770826,-0.480053667529628,0.157189636896742,0.138439930401545,-0.148776741279637,-0.587615890762331,-1.97580128346465
600,870,9.9702257979003,0.0237414318999886,0.918773799205829,-0.519531677893971,0.165358183141818,0.170485025437487,0.471625474187681,-0.911865814228888,-1.08125876189388
601,871,9.96368919914025,0.0265444393599139,0.923951609630753,-0.542278251516321,0.176722618787604,0.202537493174355,0.531214786148963,-0.970236665878211,-0.339722709069785
602,872,9.95797616106876,0.0292951425830703,0.928651533571061,-0.551831414671328,0.191598742687215,0.223537270661384,0.461609744025678,-0.400909538740848,-0.109235945214062
603,873,9.95269537658678,0.0320224056295319,0.932733361661046,-0.556024616357516,0.20953091169149,0.233619616877839,0.0802652612756079,-0.092857165960742,-0.00355728321046563
604,874,9.94738667970773,0.0347579075472931,0.936209395418985,-0.564628926331982,0.225490580390735,0.236104832762765,-0.300276532645064,-0.39114379403303,0.123768238988812
605,875,9.94179898656638,0.037528175259742,0.939144963927502,-0.57768054062602,0.238520412382844,0.232027185112957,-0.410213354383616,-0.360231142447604,-0.0327311738090501
606,876,9.93605595436193,0.0403499784930448,0.941605403099278,-0.585575938401339,0.247819025654226,0.225863341275947,-0.401711366014676,-0.0162863762607269,-0.133983027041472
607,877,9.93022312921222,0.0432008553244386,0.943631098376882,-0.593838579980216,0.254244595963154,0.215007155149309,-0.473372775940545,0.0774042705787198,-0.269665140745364
608,878,9.92444408362043,0.04599711105023,0.945289398338719,-0.596334360827578,0.254831254682146,0.203790982399585,-0.55366964411692,-0.102077084621098,-0.321048093555941
609,879,9.9187762033411,0.0485720823231047,0.946636711149073,-0.592787024137644,0.247535028068819,0.193805050416062,-0.327702074601496,-0.319973971508919,-0.151021809260281
610,880,9.91329651888543,0.0508688888727968,0.947737459787283,-0.585654819117894,0.233104524282893,0.183783571487336,-0.222566199850564,-0.463330861760661,-0.13104759402456
611,881,9.90800739345231,0.0529334489123015,0.948631256380441,-0.575356155001288,0.216552570194125,0.172234880076677,-0.100285282794709,-0.484067633278086,-0.235400185807045
612,882,9.90286471197019,0.0547906818869864,0.949327326265248,-0.564511357641425,0.199631093949409,0.158707060203098,-0.091829999923581,-0.564241558169884,-0.328840179634742
613,883,9.89778934507272,0.056398824023574,0.949834904053314,-0.553806050170322,0.181747047771918,0.143405189242399,-0.0547446281698039,-0.597917161127228,-0.449913626133389
614,884,9.89274143981735,0.0577577410062439,0.950175725625723,-0.543053456253047,0.163769058650021,0.128387091976936,-0.0898473910490167,-0.728700417200831,-0.434301571637065
615,885,9.88771498269328,0.0589118896490594,0.950377939213485,-0.534051238183479,0.146396839746654,0.113848516048113,-0.129086426754426,-0.719142864469971,-0.430526659832689
616,886,9.88272607506278,0.0599468934763757,0.950463392615887,-0.526329314609565,0.131574776744156,0.0990875728772248,-0.279808596511328,-0.709902119447202,-0.474800407698299
617,887,9.87776924540447,0.060939166662723,0.950441472977376,-0.521590769453758,0.118340524879923,0.0840135114730151,-0.468705063644882,-0.761992549202982,-0.561464252011364
618,888,9.87282767466529,0.0619302401239076,0.950318278336355,-0.51849274860174,0.107700289031938,0.0687307612995074,-0.643221475204905,-0.72173632251806,-0.644638149086964
619,889,9.86783675426201,0.0628952338037472,0.95009161318251,-0.517870794319095,0.0981670707699349,0.0534089580062757,-0.778981233718644,-0.660537806594003,-0.722194373593875
620,890,9.86286336740416,0.0638806082798869,0.949787654416454,-0.518155021483082,0.0902240699830073,0.0378212443640538,-0.962674909926308,-0.628005072073963,-0.870491599375862
621,891,9.85787668835652,0.0649083630173035,0.949398571664738,-0.519617140012774,0.0832729213836488,0.0213834653622516,-1.00977572450286,-0.696645916719754,-1.03207153045723
622,892,9.85287315629344,0.0659116377908907,0.948930647275519,-0.520449096835226,0.0761396058232349,0.0048817786475336,-1.12375080379552,-0.678042296769996,-1.18014520228165
623,893,9.8478268844889,0.0668751841534617,0.948499179432403,-0.521475452709158,0.0687592210471784,-0.0120023120701389,-0.92698582397968,-0.615051224099993,-1.36688751081025
624,894,9.84276061581927,0.0677946969730063,0.94808053594572,-0.522278747317843,0.061292184386614,-0.0285164186659677,-0.891951210281478,-0.618567929085264,-1.47608604306187
625,895,9.83770274974543,0.0686474135226414,0.947604179251949,-0.522245865959126,0.0525546734640195,-0.0442264698732796,-0.523136866243218,-0.771443622892824,-1.42360718114559
626,896,9.83270669192672,0.0694129931927667,0.947088861747203,-0.522164962592037,0.0431258639368983,-0.056276620800807,-0.595813488232176,-0.802827058504573,-1.21465642523744
627,897,9.82775721198043,0.0700711047209823,0.946546976687017,-0.522406441485377,0.0314594219755788,-0.0681735013846373,-0.480822173455772,-0.998416892626786,-1.28365092205082
628,898,9.82289390518016,0.0705987433263165,0.945986723917782,-0.517696416961569,0.0199834361751513,-0.0767157337154807,-0.26897314701256,-0.855868469730662,-1.10373220577224
629,899,9.81809534475372,0.0710232763778369,0.945413835790338,-0.514712715861995,0.0100292795769369,-0.0799596126284247,-0.175058202618248,-0.671701320993406,-0.575355811798862
630,900,9.81327763365896,0.0713823098927654,0.944849621636478,-0.516008995418116,0.00204021511183091,-0.0765749635002988,0.0305398963268981,-0.951577687711241,0.325361208527332
631,901,9.8082655594185,0.0716944869561372,0.944372661784971,-0.522091848854072,-0.000346985083589303,-0.0549359671869414,0.803805322598052,-1.44701081143709,2.35307470724774
632,902,9.80307304260948,0.0720197205222318,0.94417918937075,-0.528413706354496,0.00659716140162912,-0.00886029007063406,0.0722635266647519,-1.18186286139853,4.41695926670174
633,903,9.79765490700922,0.0725443185767344,0.944310809061898,-0.540179498695434,0.0381552413326463,0.0420693790106067,-0.598387685571606,0.401507090061405,5.08882307785132
634,904,9.79203863240004,0.0733073508201248,0.944710389046442,-0.546188511296239,0.0752648261851076,0.0810021840651531,0.130359233079434,1.7820012063016,4.43177206543239
635,905,9.78626974134431,0.0741380344918246,0.945252970478584,-0.545847727954031,0.0922435923641833,0.0954403435487126,1.20245803555627,1.28371256296805,2.53178887278713
636,906,9.78041580901576,0.0746575886818396,0.945841919757761,-0.543050271865143,0.0815607449431984,0.10360008472244,0.97110887658438,0.272914763054621,1.59094787832455
637,907,9.77445807012734,0.0745543805765091,0.946551642462685,-0.54408762977157,0.0485352178405674,0.108555120898494,-0.333359849123826,-0.491801281253876,0.792983492976223
638,908,9.76836478185009,0.073809949184737,0.947407629746802,-0.556692850960965,0.00552686897398457,0.113582219160143,-1.60602583341304,-1.70870883927822,0.513528760607046
639,909,9.76209165996582,0.0724853456539097,0.948437709220108,-0.57423027625789,-0.0315313910859904,0.124711986742527,-1.83080347487299,-1.97061330193214,1.12554081908168
640,910,9.75570634453374,0.070689125231319,0.949705058939808,-0.589413369229205,-0.0525382293434309,0.13091468448235,-0.768567666245183,-0.391551813376895,0.712663345436027
641,911,9.74943950100902,0.0687075168681956,0.951183607720166,-0.600826151969505,-0.0639593341505283,0.132769151606691,-0.0779946605407308,0.498605897577447,0.23859774323741
642,912,9.74307607556679,0.0668404099194497,0.952397554879895,-0.619080873537613,-0.0645361617823742,0.12279409041318,0.408953680372377,0.754287588777698,-0.232145121264677
643,913,9.73654624493972,0.0659493636059168,0.954092193438788,-0.632148483628163,-0.0499142356223586,0.114888164589952,0.682833463959123,0.21479479722733,-0.643448571271467
644,914,9.73033188808859,0.0654004061524023,0.953593268843758,-0.632718156277815,-0.032279902658673,0.0961485434062331,1.189623645811,-0.163188264463714,-0.819842126373277
645,915,9.72429858946752,0.0654044242593934,0.952684565369564,-0.621016096691337,-0.00961374672319513,0.0778035547827609,1.48189318043185,-0.102242439086046,-0.744160996560606
646,916,9.71828952620037,0.0659822752722976,0.952335522183455,-0.604764882258268,0.017667829956614,0.065130612496415,1.44772657997536,0.3202495082117,-0.666240461267746
647,917,9.71189665041789,0.0675323665397009,0.950922847250495,-0.594538151984503,0.0519980800495112,0.0494713419179373,1.16533111366566,0.680325146182118,-0.373514772671367
648,918,9.70573121440979,0.0694865226644643,0.949160224746644,-0.584556402529809,0.085997580383406,0.0309659238979147,0.596559342850278,1.07359899181222,-0.379321422410779
649,919,9.69982222709508,0.0719762043916934,0.947140044211041,-0.573812572666917,0.111908486845436,0.00754894349423953,0.256167370007002,0.619970053513435,-0.6724112126677
650,920,9.69415624663556,0.0746951727327685,0.944942556670623,-0.561869369491852,0.12916965666075,-0.019978399967898,0.584907185027436,-0.00298143947511729,-0.983881211218821
651,921,9.6885081686689,0.0774856203301809,0.942635596738754,-0.555940825933987,0.145117702680729,-0.0446307027305003,0.605820523291514,0.293530007760421,-0.800691009904682
652,922,9.68266164840682,0.0801798726378353,0.940318937123064,-0.56300484240632,0.16040031704182,-0.0636845767927445,0.17343576008094,0.660717708390358,-0.421374916131597
653,923,9.67659927656305,0.082711034865617,0.938081560143491,-0.572851384294999,0.171758002192161,-0.0766947568435651,-0.210716720247099,0.542922615078195,-0.0477881347888251
654,924,9.67027953944346,0.0850323364409762,0.93589515790966,-0.593279694656477,0.18203003732704,-0.0936605246424462,-0.429542729498514,0.418164031241157,-0.439543387485488
655,925,9.66385736939882,0.0872105869214188,0.933756919660163,-0.607652986340391,0.193176794628023,-0.110974911955118,-0.165708917326526,0.322040942437943,-0.579478160466935
656,926,9.65744559137544,0.0892049022581899,0.931686831063235,-0.614856349028285,0.204525923392279,-0.127024299102771,0.275542450900548,0.279927135228132,-0.639030920389456
657,927,9.65111558255209,0.0910683643656988,0.929954703824901,-0.615696641897455,0.215209973808985,-0.139379932026554,0.499618351256665,0.276508636034636,-0.703266191719088
658,928,9.64487969573652,0.0928383370445209,0.928303485608885,-0.612057384730606,0.224329031343457,-0.148752480563358,0.56015922108403,0.30163274932803,-0.664822167920768
659,929,9.63883427229311,0.0943896454322769,0.926557881413813,-0.6023005942785,0.229679646485569,-0.155842109540974,0.573471014542866,0.404478987978977,-0.575833502680369
660,930,9.63301606395646,0.0959480425400795,0.924863638491118,-0.588524115758085,0.234169452690785,-0.160729972236465,0.635674066323434,0.420536418934861,-0.496792219726255
661,931,9.62750246790711,0.0974031054945712,0.92321449217874,-0.570607032891352,0.236475961286933,-0.164414690685789,0.750942058195029,0.547042038975003,-0.479419270450576
662,932,9.62233215015143,0.0988480433374075,0.921600996317046,-0.547590211709941,0.23542844008254,-0.165614025551156,0.639897259076417,0.785750115081344,-0.417888089824684
663,933,9.61742848919294,0.100353217221095,0.920015875087672,-0.526966711703399,0.236061321958138,-0.168210946331688,0.602218011520532,0.82823643239478,-0.435485084493326
664,934,9.61269482377217,0.101974591425035,0.918448028586846,-0.509294269249532,0.238525604984027,-0.172241396525292,0.472182332725625,0.846164603090894,-0.558958367414339
665,935,9.60808528857372,0.103672950809564,0.916766403501496,-0.493177157506935,0.239868989348529,-0.179274875858874,0.41738799104987,0.787288863719678,-0.790868150277985
666,936,9.60347206588456,0.105540764801996,0.914996517335274,-0.479915346036994,0.24213534926223,-0.18622470691907,0.250691523034374,0.894447459179877,-0.732011713249701
667,937,9.59885300289894,0.107539167127104,0.913154156768208,-0.464075159711984,0.247360308537356,-0.191475018588108,0.358976573521258,1.26787420877188,-0.575719804586301
668,938,9.59418195901733,0.109702897825273,0.91124580905239,-0.453424052708519,0.253405669605117,-0.195157548534045,0.161800551818867,1.25209748502781,-0.25476078099427
669,939,9.58933620224733,0.111989364488541,0.909282117682629,-0.45181763045718,0.262562134859326,-0.194283653043388,-0.00338730411046053,1.3390795917648,-0.098759422927066
670,940,9.58422715926729,0.114306275616475,0.907337252666985,-0.453127120821318,0.265135088173104,-0.1846276330386,0.103443291210392,1.21534916757319,0.196289474109141
671,941,9.57901525599827,0.116557396228935,0.90542807288548,-0.449667527435881,0.25661200968056,-0.168029075522367,-0.0527031025722628,0.84657660146503,0.431353066366584
672,942,9.57395572050813,0.118670917195342,0.903511336314048,-0.444417884208283,0.230412192656632,-0.158166380360939,-1.2274245192837,-0.798538493811499,-0.235370104858639
673,943,9.56911664222052,0.120560675777404,0.901575098403321,-0.435495925682691,0.202334208478804,-0.164474300043141,-1.34333415874014,-1.68336451857649,-1.21655942690224
674,944,9.5645358165903,0.122247267373698,0.899505985647653,-0.429173547649123,0.197796304794146,-0.180021656087001,-0.841002893695314,-0.147100769292285,-1.30329928223566
675,945,9.56023590978984,0.123910506129109,0.897283734859396,-0.423554730678139,0.211173220668118,-0.201075323797006,0.03649423525231,1.48335956322274,-1.2954256880884
676,946,9.55623590734177,0.12569901249367,0.894988402446817,-0.420090046629494,0.231333316263741,-0.227592238165119,0.3792086844844,1.99696730000289,-1.2638847265203
677,947,9.55258509054087,0.127582006361486,0.892432686979852,-0.407674003340864,0.252061060450839,-0.242034517888689,0.669637720170132,2.34740818553241,0.029569681401701
678,948,9.54934713686207,0.129614444869553,0.889862347487155,-0.37914243291851,0.255503431051345,-0.236755167778873,1.14157639930727,0.443365160687393,1.38269800371539
679,949,9.54618214026851,0.131714805961404,0.887585171603816,-0.359160892129099,0.243407425794807,-0.203114539324253,1.28255477117785,-0.629943179490847,3.12438608759367
680,950,9.54292723674111,0.133525438566848,0.885679179438763,-0.360628813282634,0.236686264373723,-0.142218057103675,1.55095196183496,0.764298197922038,5.1427437265382
681,951,9.53976435102374,0.135196686065213,0.884253910850386,-0.370327149405971,0.220068562736622,-0.0955059536306949,0.853779822445236,-0.158524815414446,4.27415122166616
682,952,9.53662783088411,0.136754647493457,0.883188278028915,-0.378111715405289,0.190861221818409,-0.0646273709916424,0.23389759491516,-1.43037651372813,3.24075343014062
683,953,9.53368205965757,0.138083798675953,0.88240697550256,-0.374404084696341,0.163370074827287,-0.0487979941768955,1.16850270329289,-1.03499287426022,2.14719675888676
684,954,9.53096755780701,0.139273872678248,0.881755119028638,-0.366003905954951,0.146792246887384,-0.0414415489142126,1.22511841462728,-0.129734795974574,1.51756981595667
685,955,9.52854881533465,0.140427831535627,0.881243758859815,-0.356637520259935,0.138765764094861,-0.0431748384636353,0.983723330726263,0.319328149688464,0.587570321482961
686,956,9.52635153271331,0.141601969156731,0.880889285738034,-0.342647656405297,0.13616478961401,-0.0531342154371697,0.809157089355217,0.555814456123094,-0.435716400018589
687,957,9.52449419671837,0.142736323204253,0.880682210646706,-0.320892434439741,0.135044339738061,-0.0620697029318659,0.746243373791047,0.624730693441014,-0.810072068675248
688,958,9.52260595940797,0.143676706809827,0.888375483371402,-0.30439448202217,0.128548963736666,-0.011405912430626,0.527827250806149,0.154081555605769,-0.584222824831729
