,Frame,CoM pos x,CoM pos y,CoM pos z,CoM vel x,CoM vel y,CoM vel z,CoM acc x,CoM acc y,CoM acc z
0,839,-0.0482307140508973,-0.183407150343813,0.885140655843141,0.0671969576738776,0.190706760793417,0.0836193343460272,0.0186917761202724,-0.121025414454047,0.245028912678145
1,840,-0.0468256426776812,-0.183595296687972,0.88559087066043,0.0777972552537228,0.150935959725264,0.0811903759513649,-0.0625947518162641,-0.103844512058004,0.193163631003933
2,841,-0.0453499998734022,-0.183721482487268,0.886120617936457,0.0881315530939539,0.117780767563456,0.0783166609026493,-0.0497367819334944,-0.200982995632712,0.112375855207892
3,842,-0.0437193060673524,-0.184120020337226,0.886712036578835,0.0984334014630977,0.0867917412653674,0.0756156040153837,-0.118052486415499,-0.127343308025881,0.023404549424575
4,843,-0.0420644759114587,-0.184467994811626,0.887349112209405,0.106601701157083,0.0628632608617923,0.0730822012996446,-0.128669848995606,-0.138005042331066,-0.04808068515375
5,844,-0.0403738517282175,-0.184834398767641,0.888027714367483,0.11405416268815,0.0436107791492833,0.0703435695481404,-0.193959517802865,-0.128756656644093,-0.0938099446766728
6,845,-0.0386679346909722,-0.185105503033317,0.888722488631004,0.121317851313986,0.0301591733721341,0.0663475299558145,-0.219170516571609,-0.086315363514746,-0.17054544793544
7,846,-0.0369688056706637,-0.185350911216237,0.88945049913475,0.127349743144832,0.0196259985931215,0.0629437830169811,-0.242716888455947,-0.0762030673393193,-0.192798332106226
8,847,-0.0352811656101478,-0.185474531171085,0.890202352502875,0.13276423365733,0.0137159213013856,0.0597257817698199,-0.230110147612451,-0.106510204183356,-0.204884558691614
9,848,-0.0336448120389482,-0.185501471675265,0.890988199537348,0.135279430915214,0.00847378365381985,0.0582749968455709,-0.220740074955695,-0.111476078161959,-0.241503360879525
10,849,-0.0320406576466537,-0.185404871059637,0.891784158144471,0.137825248338935,0.00614212310041298,0.0555391145377325,-0.323668936844554,-0.260864360361194,-0.235773380206694
11,850,-0.030494831941548,-0.185214212378756,0.892604346057873,0.137659384561382,0.00615012120281977,0.0549496503329454,-0.184539801421749,-0.225518477314923,-0.260626197140534
12,851,-0.0290333713707788,-0.184934241808117,0.893448120769152,0.134977055888063,0.00843136920788505,0.05512399937645,-0.160561512148346,-0.173486171372818,-0.294236839156416
13,852,-0.0276566473430647,-0.18453027101546,0.89429819611909,0.131713138947697,0.0142833529402495,0.0543176411251219,-0.239598144328728,-0.151616385373328,-0.27929035972555
14,853,-0.0263808220312122,-0.183997951605757,0.89515631524658,0.127195403361123,0.0215410422552008,0.0532201869421922,-0.155483836337161,-0.144219629712624,-0.380800442449503
15,854,-0.0251909400741206,-0.183377565106039,0.89602120119256,0.121396311758451,0.029011708120816,0.0530007841983348,-0.111382243275344,-0.196740662487642,-0.359596991182969
16,855,-0.0240586848972636,-0.182721971077207,0.896884610466924,0.115458926510105,0.0348233331120286,0.0512778036068768,-0.205665164742319,-0.239689499317888,-0.473563031853869
17,856,-0.022985863404528,-0.182066643664595,0.89774895258771,0.108277675983931,0.0396551251541672,0.0502391540655847,-0.16679064809814,-0.220433363018061,-0.53281511680466
18,857,-0.021959399147844,-0.181427929406831,0.89861153400483,0.101473195828921,0.0432143692610072,0.0489807625162163,-0.198251466311152,-0.165708211216846,-0.574558285200303
19,858,-0.0209809300959227,-0.180830614280864,0.899467775303248,0.0952193192128246,0.0440691834247968,0.0468386410194274,-0.121175404545103,-0.303691358647946,-0.710239472391075
20,859,-0.0200386784084926,-0.18030816558732,0.900301057591883,0.0894830983557927,0.0431797532378782,0.043693079126192,-0.200268978887473,-0.297896310134612,-0.766465379861948
21,860,-0.0191552131843609,-0.179833571401904,0.901110846113324,0.0844564230112411,0.0424593634064847,0.040916172291472,-0.171455773077697,-0.184729026665344,-0.746956004779592
22,861,-0.018332448020589,-0.179372123064476,0.901895037441368,0.079512669215555,0.0418184986378861,0.0379657814363416,-0.207276675731577,-0.250842542016724,-0.712285725607756
23,862,-0.0175867624222763,-0.178924262726702,0.902663115328323,0.0749191595620662,0.0404047236352049,0.0356657544749013,-0.108464927374309,-0.179597887239816,-0.728529917308743
24,863,-0.0169015887172592,-0.178476349241299,0.903403610549626,0.0704264706835073,0.0390773605619078,0.0320953991390768,-0.18624858077071,-0.155839175689903,-0.772689864380846
25,864,-0.0162825108232042,-0.178023776598114,0.904125031032224,0.0656254988401117,0.0381216840515622,0.0299856253364038,-0.139447676422183,-0.103102614852348,-0.708436790135344
26,865,-0.0156773930363016,-0.177597753030453,0.90482868450263,0.0616125131034219,0.0355462958887646,0.0286047464888511,-0.0305243284844127,-0.161045365966747,-0.66960304491284
27,866,-0.0150778423761814,-0.177199270221904,0.905527925447053,0.0596604571488778,0.0337184455114392,0.0269708406301792,0.0129062600429852,-0.114330406382617,-0.660015181238576
28,867,-0.0144520357051182,-0.176833164791345,0.906226157208465,0.0581645614970486,0.0311487086366798,0.0265854277368309,-0.00802254850604219,-0.104338409266984,-0.582908057970333
29,868,-0.0138048855669378,-0.176494429189055,0.90692223112099,0.0565918989251982,0.0294662958316972,0.0264802011889729,-0.0742833043851101,-0.0983013263475962,-0.564291793774946
30,869,-0.0131365304199829,-0.17615485029443,0.907612080295787,0.0557309320108645,0.0292308858903132,0.0271131791747714,-0.114770168806206,0.00957514764788913,-0.449354159673529
31,870,-0.0124571531208568,-0.175803177537106,0.90828591895477,0.0550907508266852,0.028915783045093,0.0264470965783057,-0.24255273623483,-0.0245517450529305,-0.535825172167316
32,871,-0.0117964259102992,-0.175429100506628,0.908931768059107,0.0530890435910072,0.0296903832093866,0.0261310819999302,-0.272449731826147,-0.0335979618795006,-0.489863255123284
33,872,-0.0111747043112996,-0.175049131263135,0.909543751378678,0.0501142113443216,0.0295468011897156,0.0240694116194567,-0.444617071227381,-0.0689339222326856,-0.608352597252905
34,873,-0.0106302159148574,-0.174706314435411,0.910119526702482,0.0450154463727106,0.0274067549999339,0.0226035757149405,-0.417460610831497,-0.125793040843368,-0.649423457313268
35,874,-0.0101643772748651,-0.174448210377012,0.910660118617527,0.0385983327232511,0.0233216182701247,0.0215214561638003,-0.453343943756352,-0.185874150987852,-0.657825828676814
36,875,-0.0097703938899653,-0.174296928968254,0.911163799514668,0.0327651050681618,0.0177411144172768,0.0202482142602642,-0.400699669713364,-0.205121025022011,-0.626022366554795
37,876,-0.0094319488553626,-0.174242869776946,0.91162880519876,0.0275040384880326,0.0117232524114264,0.0183522313630432,-0.424646654308472,-0.27085423174813,-0.606048472348132
38,877,-0.00914037162010987,-0.174271612774093,0.912053374223061,0.0231475934824471,0.00532836004572345,0.0166626856796558,-0.40017751577954,-0.268800443217896,-0.535403811749154
39,878,-0.00886776333034775,-0.174348209285559,0.912438186758524,0.0206052126597547,0.000514422150203055,0.0147372529816905,-0.373602750646888,-0.287853662121573,-0.438349710647977
40,879,-0.00860788824301069,-0.17444189316821,0.912800978372693,0.0187954250335108,-0.00393470287361144,0.0139204595962788,-0.312098750137317,-0.259601630814624,-0.360010295627993
41,880,-0.0083719467485056,-0.174505934730398,0.913161613925004,0.0174578150360462,-0.00640590043517804,0.0152214581029739,-0.194550020839206,-0.258417770686246,-0.201869424050677
42,881,-0.00815697186329952,-0.17451903257459,0.913537946833721,0.0164319059084756,-0.00783197423234058,0.0182149568237782,-0.128964981037537,-0.282945711176127,-0.0467664236339186
43,882,-0.00796368284499624,-0.174463969628166,0.913925502143671,0.0161627553874489,-0.00712557354860111,0.0208372259299144,-0.142491261205125,-0.284493963521611,0.0198938912734134
44,883,-0.00784933364026299,-0.174334582114341,0.914314221595891,0.0150095138301276,-0.00390713902908064,0.0227975955692613,-0.0816604472210273,-0.223429360884276,-0.0245205946184161
45,884,-0.00783148171721423,-0.174154281290065,0.914692432040903,0.0126382379223212,0.000337296410066138,0.0251965876916975,-0.0385203220569185,-0.163166858519315,0.0646115773213983
46,885,-0.00787692616226802,-0.173966290617745,0.915045022168553,0.0101116950547877,0.00328460109964866,0.0263439622232553,-0.0200593430679597,-0.127583286117343,0.0483630485228857
47,886,-0.00799315622585467,-0.17375282577552,0.915392936022486,0.00684131326225617,0.00598214163559528,0.0282557009214666,0.0263451604563867,-0.0473039015061047,0.123770297664918
48,887,-0.00807466131616203,-0.173564775656557,0.915750099013245,0.00503495441275602,0.00550168796763003,0.0300817530415706,0.104732583391223,-0.15980186271133,0.087051943449278
49,888,-0.00821583730158248,-0.173341458186709,0.916128400560861,0.00235326596592881,0.00411576675205744,0.0332521845499934,0.121812716112769,-0.146427820512969,0.182141556829874
50,889,-0.00826782941117269,-0.173145910600122,0.916538876103489,0.00180773365997575,0.0018027200909929,0.0358842625248456,0.185057050168737,-0.166103614387153,0.101797764865984
51,890,-0.00827839497113782,-0.172932067442539,0.916975175376671,0.00313585123164875,-0.00010671511771832,0.0378567251824377,0.261856005645417,-0.20401963694699,0.0632598862675642
52,891,-0.00821138721118839,-0.172713578174191,0.917438735959933,0.00474729245917643,-0.000434743991050633,0.0399396380738471,0.29298826320637,-0.260880770333408,0.0219282555657425
53,892,-0.00808138320460798,-0.172462367837073,0.917914811863823,0.00755431627919838,0.00160787759993648,0.0407859745609005,0.236386431451105,-0.254756846694051,0.00883213360215662
54,893,-0.00791022022790225,-0.172170769474164,0.918416496807002,0.010175045113792,0.00441301369398515,0.0429660763375548,0.391797901371772,-0.252997163341084,-0.000415676770797426
55,894,-0.00768939543896846,-0.171822114986377,0.918929142728072,0.014415141748413,0.00877566315158333,0.0436628114293928,0.410652701246365,-0.240415217438618,-0.0465422247300474
56,895,-0.00739925134156001,-0.171394088633673,0.91946212398794,0.0200873394838848,0.0150177272299652,0.0457368376355965,0.58631896606629,-0.0576665066219908,0.0273310877129492
57,896,-0.00701054122272707,-0.170785397597541,0.920037976366145,0.0249324835388698,0.023965476379435,0.0486810696422949,0.44641569899543,0.220896007454686,0.109962656916834
58,897,-0.00661790469741592,-0.170088685567249,0.920698721097034,0.0291386206489293,0.0279135413564449,0.0487470075677498,0.226174261545414,-0.618358511475915,-0.188735083366455
59,898,-0.00616584414461064,-0.169488403979012,0.92134859595932,0.035206761773126,0.0329404245681651,0.0492497579388559,0.299033079035023,-0.120642335290007,-0.0669671771336336
60,899,-0.00576101153726267,-0.168882206312169,0.921958114043379,0.039396723776407,0.0371262094401321,0.0484852237832093,0.282278892383688,-0.094130783146357,-0.129330382126077
61,900,-0.00533569006655148,-0.168306595749515,0.922531964360997,0.0425356418934719,0.039944767933621,0.0481060234283345,0.367066326595384,-0.103386639889909,-0.136657602973098
62,901,-0.00491544457661087,-0.167752758434173,0.92308203608981,0.0449206515265829,0.042340572054547,0.0485733575273937,0.431891663732321,0.0431230667088677,-0.108779108301026
63,902,-0.00447487017834517,-0.167196745729897,0.923609561551286,0.0478123067485526,0.0444249616787255,0.0488098817327172,0.413077009565419,-0.0128857587195474,-0.0562903794935825
64,903,-0.00408375383744028,-0.166601891706856,0.924045441238449,0.0484479986585463,0.0478572577819909,0.0489104123704253,0.434792604692395,0.103362543488217,-0.0851011998512797
65,904,-0.00360060753846955,-0.165923463120166,0.924450147564688,0.0514162196994368,0.0549539658932156,0.0487311790098232,0.318228189299512,0.371636104636263,0.0567936207282312
66,905,-0.0045653907900584,-0.164255040272052,0.924884450242459,0.0260736793776682,0.0740730994306051,0.0448832170202889,0.0467912535040099,-0.0490783442346486,-0.360862511945291
67,906,-0.00293097229696073,-0.164202527653555,0.925236072223902,0.044924724842475,0.0661547200716231,0.0418448792966528,0.176421503749973,-0.0690098717219387,-0.28988682643148
68,907,-0.0041052280282138,-0.162450387939828,0.925566612857296,0.0216778155789009,0.0837526793750911,0.0394986093133655,0.179782770325335,0.0691945228973372,-0.276441945966476
69,908,-0.00355223985789876,-0.161710143775708,0.925884793129265,0.0217653287523247,0.0861368530031374,0.0369588439843607,0.00451621380724039,0.164511735171159,-0.33629010153082
70,909,-0.00375268523871025,-0.160485116387252,0.92618224079973,0.0137724058975621,0.092931020352248,0.0329164105667274,-0.0482619906673069,0.115862597781526,-0.466738488874234
71,910,-0.00348229943104486,-0.15953525382592,0.926453065298258,0.0111364056010997,0.0961086463477063,0.0286473930812204,-0.272869846408177,0.175703825002131,-0.497563102038147
72,911,-0.00341393402681758,-0.158497290965481,0.926715927458298,0.00557436121670766,0.0974806067389092,0.0262278591702226,-0.201556640702164,0.17787245781504,-0.491605886813362
73,912,-0.00321462009707252,-0.157594339292535,0.926980692713549,0.00166492310358501,0.0958265817329546,0.0248714142595053,-0.184516909562146,0.157511991059043,-0.483238016153714
74,913,-0.00306074597827441,-0.156706505001535,0.92723958411083,-0.000735958473804409,0.0930501840727496,0.0224134293658447,-0.279779157370649,0.0883689525545648,-0.480232504761965
75,914,-0.00284538012127007,-0.155904516956285,0.927488277418161,-0.000538392747297812,0.0871279345242189,0.0194444850440318,-0.301257701954415,-0.106314445190171,-0.497176069251148
76,915,-0.00261055264870757,-0.155168129362589,0.927723012595449,0.00106190174677544,0.0810945757224872,0.016530220596485,-0.347573095356834,-0.0692917275594906,-0.462044381107049
77,916,-0.00235520178089758,-0.154509590181494,0.927957286304111,0.0022792732269299,0.0744339688837832,0.0161125599272247,-0.352828385825479,-0.0601384964009809,-0.314061487948924
78,917,-0.00210210312475918,-0.153918732556019,0.928189088904847,0.00458714235440871,0.0679255592551674,0.0147893448099704,-0.325366919150666,0.0287729228080026,-0.343237625186557
79,918,-0.00188207181642511,-0.153348198392092,0.928418836774117,0.00582976351896304,0.0634750662522388,0.0150325872638002,-0.459148413931588,0.147625617448663,-0.164878551300002
80,919,-0.00167049213633596,-0.152846860852179,0.928645492153787,0.00939869343123446,0.057062403549085,0.0147348033806753,-0.175014891194415,-0.0984814094073906,-0.173258839326294
81,920,-0.00143155002011547,-0.152436865239651,0.928864853929175,0.012545662990625,0.0524379992421347,0.015493760641794,-0.263279186708348,0.0725612788986254,-0.0295743977136675
82,921,-0.00118476003809937,-0.152074847287336,0.929078331477729,0.0156511237213126,0.0492224959658115,0.0167355493587012,-0.302396097785827,0.122418466747067,0.0866697380927761
83,922,-0.000936500339542887,-0.151765197952074,0.929293396396678,0.019024492306824,0.0451653033158886,0.0190529140181017,-0.241868267542387,0.1496609562967,0.193447214498198
84,923,-0.000650521311251024,-0.151545479456892,0.929346784645772,0.0220972379569372,0.0392728250837019,0.018200200224326,-0.216710743656859,0.0346596208762848,0.135395383381736
85,924,-0.000319778012936585,-0.151391937593795,0.929397952404658,0.0241697238704177,0.0323352942498593,0.0182562451790919,-0.205803668014409,0.102695632776352,0.173354556831935
86,925,5.08705917508314e-05,-0.151369268472705,0.929463144212952,0.0259034776126708,0.0256472971496253,0.0179744131342871,-0.310368928555354,0.10983144125392,0.155111942057651
87,926,0.000437611996939052,-0.151406278164992,0.929548359859389,0.0272267735338855,0.0189329005281921,0.0180289926981972,-0.30362746426641,0.0238820147898137,0.139521951362234
88,927,0.000821840547761982,-0.151482118632537,0.929653705752176,0.0272604722329195,0.0133048345444867,0.0179674510322398,-0.347166525956586,-0.0379310282462416,0.0982720398741558
89,928,0.00120054061935664,-0.151592411264919,0.929773707385834,0.0268066924360001,0.00820802909306963,0.0183155048171858,-0.293671944801092,-0.156435566017736,0.103852428560926
90,929,0.00157693149223478,-0.151741693195972,0.929902464296825,0.025973851670338,0.00375543584518389,0.0181849894624378,-0.275354943105577,-0.158966311734694,0.0293587685728088
91,930,0.00194411066652365,-0.15192187089302,0.930036505431508,0.0240641794151604,0.000740197727217685,0.0188574679534744,-0.307369977736238,-0.106515676197468,0.0650243195115893
92,931,0.00231166213755015,-0.152121921500558,0.930178220648399,0.0223203057641444,-0.00156924889237183,0.0200791943206821,-0.310744073809243,-0.0316937504968736,0.107344296602598
93,932,0.00264950322456904,-0.152305234855868,0.930332274736699,0.0204650572920132,-0.0027615993179461,0.0217828237176113,-0.3252093329782,0.0455843017448204,0.145775742859838
94,933,0.00295436250538398,-0.152445956556059,0.930497608904567,0.0186185696961787,-0.00308868966307667,0.0232054291196394,-0.303948019479624,0.0609911048983993,0.143453609655672
95,934,0.00321495099041617,-0.152547866835644,0.930680431303537,0.0166550901434541,-0.00296532673999513,0.0257623447140679,-0.262677779051561,0.144759237446505,0.205909793534737
96,935,0.00344995328815054,-0.152610038949705,0.930873372493373,0.0161803818681261,-0.00285464327754295,0.0267777336982451,-0.263369488449108,0.148758044946606,0.150612767272853
97,936,0.00365340784907934,-0.152619718192583,0.931070630366583,0.0150526571226042,-0.00145650032969554,0.027216730693023,-0.289328775201572,0.10181466558504,0.123551809846845
98,937,0.003831144436598,-0.15259791421416,0.931270807092814,0.0141562090095885,-0.000527939206604012,0.0277388772830735,-0.229523455382839,0.068178596174499,0.125050811525904
99,938,0.0039860357903378,-0.152551800913886,0.931472036463571,0.0131608517136886,0.000477924940407071,0.0278566593347881,-0.243017629583288,0.101596357704327,0.0952047038896597
100,939,0.00413579602722376,-0.152495608300558,0.931668027903022,0.0133411387468444,0.00152988688798464,0.0274038236695887,-0.154740008429876,0.0755249399118281,0.0627253727442051
101,940,0.00429487295385866,-0.152426147220342,0.93184895789341,0.0142763502601566,0.00321572759356876,0.0252465505192881,-0.166526511236224,0.0878161209618066,-0.0413726933451712
102,941,0.0044808972931282,-0.152360772002191,0.932019608198955,0.0157291061353168,0.00375247048644927,0.0243103758913256,-0.0490073675628416,0.0809915916516797,0.00681613349261024
103,942,0.00472621394064959,-0.15231128890879,0.932189523991844,0.0181185721397576,0.004223555281699,0.0242138947604587,0.0482839532388504,0.138317152766559,0.0465643484127507
104,943,0.00503735751208523,-0.152254399154857,0.932363434154437,0.0215663367775549,0.00538376248015037,0.0241725305924486,0.0785888456688875,0.215945715632085,0.0491723953749722
105,944,0.0054122364622125,-0.152173413367369,0.932540828578362,0.025975262117326,0.00691919001618575,0.0241458340735992,0.123787517904974,0.208918637822043,0.0506964926914157
106,945,0.00585558225868953,-0.152062319009963,0.932716548236121,0.030196966229462,0.00784765392170684,0.0248910975331895,0.229828248197061,0.281136308386836,0.0502102138200095
107,946,0.00633424284550666,-0.151976480455276,0.932907034473409,0.034104546694142,0.00866646409116182,0.0249544607950366,0.235299661721321,0.291321246165944,-0.0213491641621813
108,947,0.00686493745788603,-0.151903116370523,0.933100643746991,0.0390456308799041,0.00839115188644391,0.0249017689741099,0.255927229813792,0.279525609057222,-0.0410630759935096
109,948,0.00744869848076508,-0.151852666429929,0.933286255663386,0.0446430680494206,0.00795331902778311,0.0232738510820673,0.209613697624144,0.276715260205601,-0.148060935051755
110,949,0.00806746898745625,-0.151840805200367,0.933451169584883,0.0491887385175148,0.00747598768488353,0.0208921547790982,0.074361155669074,0.2431127451263,-0.18832399945448
111,950,0.00868840048366016,-0.151887457000424,0.933593986986156,0.0524748130569366,0.00493378230470486,0.0182211753135181,0.0314801999436362,0.220129588391347,-0.236861316938418
112,951,0.00930237415390619,-0.151985963443153,0.933711550619175,0.0553338939729379,0.0028420583969865,0.0157038152130652,0.0300012919294478,0.190011972437944,-0.191417645586011
113,952,0.00993317784780929,-0.152134693450175,0.933803209429955,0.0585551498367248,5.25856268620798e-06,0.0129794885834596,0.0235119573948611,0.0701531989516819,-0.153265136184379
114,953,0.0105922101181244,-0.152328373268502,0.933880570870726,0.0614790082235418,-0.00219154604538013,0.0121905128822011,0.10344745248444,0.139417514268864,-0.025002914205655
115,954,0.0112798447726628,-0.152518494622429,0.93395385942869,0.0654162763362007,-0.00315002542567983,0.0125686343283346,0.111468405406283,0.173160354942096,0.123047070240802
116,955,0.0119865973970109,-0.152686194197034,0.934034835688552,0.0689137411499271,-0.00307387775041915,0.0140056119268885,0.202747127326382,0.203964935851815,0.188589173911946
117,956,0.012723552400238,-0.152819418898769,0.934114274272015,0.072192943937819,-0.00165050458735411,0.0143856975581391,0.131269885041202,0.150838934233247,0.166244506901843
118,957,0.0134976838394205,-0.152930451350858,0.934184746269461,0.0761624910496195,-0.00105925321296614,0.0142109754769141,0.139464217663794,0.114579243267268,0.13794080037336
119,958,0.0143123640225749,-0.153017976127051,0.934240909965637,0.0802366640269665,-0.00126790089293305,0.0132637815701116,0.116527481587245,0.121033094624907,0.0763152548399941
120,959,0.0151684601199403,-0.153061430726495,0.934280103201716,0.0837669812599945,-0.00186810204107322,0.012032833702816,0.0579448817330231,0.0489102885731986,0.0485888422169553
121,960,0.0160499586883639,-0.153070646396506,0.934307314352342,0.0862189687862728,-0.00309499921716036,0.0110059265936431,0.167102287965086,-0.0703240682524809,-0.0302836065314364
122,961,0.0169381252870315,-0.153050696159687,0.934323379272611,0.0874356117642485,-0.00469524817628583,0.0100423180331637,0.117059018805572,-0.0206117459602647,-0.0677071146927383
123,962,0.0178225521413237,-0.152986432352643,0.934327141821727,0.0891781214767349,-0.0051472210900689,0.00824044397142826,0.250373054886352,-0.139900171470051,-0.152894389212334
124,963,0.0187169339069228,-0.152893531261407,0.934313942191843,0.0903205027625095,-0.00502465667169466,0.00610223247651617,0.209053422598251,-0.223393486741181,-0.188731152400423
125,964,0.0196179318199649,-0.152771389285626,0.934279915661336,0.0917826786176332,-0.00316413538143656,0.00356288817169925,0.16073847327953,-0.180996121282526,-0.198557518214243
126,965,0.0205135313076361,-0.152582131886196,0.934209692063768,0.0920043316109747,-2.93102611987272e-06,6.2103843606611e-06,0.0650445732624954,-0.091805342094563,-0.270868221645552
127,966,0.0213153885153003,-0.152337068245708,0.934124469132278,0.0901866064422849,0.00379529188558688,-0.00421438069306985,0.0774998331985458,-0.151532978209541,-0.360226983960206
128,967,0.0220553873033404,-0.15201769033023,0.934014978066635,0.0873252973425714,0.00918430724626922,-0.00812485131282701,0.069469691778723,-0.172116784012165,-0.343860669690755
129,968,0.0227476871226596,-0.151639675449103,0.933891296091283,0.0838838510330177,0.014635047460381,-0.011115914688259,0.110041654501588,-0.149060967657849,-0.311874715772964
130,969,0.0233942995530878,-0.15120081928467,0.933763451395707,0.078787348254602,0.0209216210470038,-0.0129450335527378,0.051875889132516,-0.0792524535294503,-0.264256341687548
131,970,0.0240078558800039,-0.150707749498954,0.933633078840698,0.0752849289418472,0.0276095647566646,-0.0143081034660783,0.0766466519258328,-0.0321689638478252,-0.206010942314356
132,971,0.0246118914043592,-0.15017337073422,0.933498260841044,0.0724584268727532,0.0344701153138719,-0.015459980590981,0.0321943684233553,-0.0154253662518659,-0.161351395765576
133,972,0.0252210843434176,-0.149654968879553,0.933267086927317,0.0696873440824022,0.0400475063538081,-0.0172875593945353,-0.0103274677506763,0.0209305089918021,-0.128460058712147
134,973,0.0258683288480961,-0.149158824690997,0.93302180661583,0.0700597406406957,0.043454927832916,-0.0172723390885972,0.307891655802512,-0.00857592988774679,0.00951222176420701
135,974,0.0265773629647192,-0.148674452076304,0.932780639969438,0.0722992831673152,0.0471560135058079,-0.0160730680857976,0.31424123129448,0.233084028337641,0.130291778780958
136,975,0.0273236360172365,-0.148128291695261,0.932564173741441,0.074114165348003,0.0512935172275842,-0.0151456335765572,0.25859960237981,0.184460981773189,0.110083899010192
137,976,0.028119189531798,-0.147587894762599,0.932384640270336,0.076418877733512,0.0541490712691557,-0.0135890583239337,0.275481352340065,0.247860650875745,0.108352807439619
138,977,0.0289697854211617,-0.147070751627813,0.932243798909153,0.0803510628192298,0.05528934471717,-0.0124550894854241,0.28864623508604,0.177082766246012,0.0849344982815178
139,978,0.0297826661985528,-0.146458087615571,0.932133873966155,0.0835439859075464,0.0560888626239694,-0.0116799984923726,0.248582142525053,0.120160949164478,0.0474024255003865
140,979,0.0306578051915555,-0.145882150264297,0.932044541958191,0.0869933223414031,0.0554837753053686,-0.0109013780240463,0.261240179991505,0.0371108584372748,0.0232910961302411
141,980,0.0315525880660425,-0.145306668865192,0.931968772794197,0.0900974916640809,0.0534829217353297,-0.0101290274342764,0.307192895520297,-0.00352694649351,-0.0190653644753381
142,981,0.0325234559320557,-0.144763173219252,0.93189221100234,0.0939787742726427,0.0516698066002124,-0.00998345605209054,0.269287449418431,-0.0681067848300422,-0.0368859140897235
143,982,0.0335603345509649,-0.144247164068137,0.931810965560568,0.0980023857856302,0.0494377763323252,-0.00935683124642145,0.245412615537293,-0.0774418552243326,-0.00319754017742619
144,983,0.0346388653823517,-0.143744106549151,0.931720760497722,0.100400033060069,0.0486510550064073,-0.00944793381421054,0.125461341146473,-0.0137544073515929,-0.0660322067767997
145,984,0.0357383173877034,-0.143218466189117,0.931605512625702,0.103274108399091,0.0483442878449105,-0.0109771105855471,0.052555224698316,-0.0190109618013885,-0.127188649503961
146,985,0.0368696054775695,-0.142637727636905,0.93145228656973,0.105243372747252,0.0491503859391595,-0.0124629462093598,0.106380599760313,-0.0726498663994711,-0.145310970361903
147,986,0.0379744394952263,-0.14202054958857,0.93128158135059,0.10634966555762,0.0517726295177568,-0.0137746052386098,0.071179489716188,-0.143397700306404,-0.114785331073421
148,987,0.0390555980443005,-0.141358318131708,0.931088120448962,0.105972334448338,0.0551671579002445,-0.0145286738309008,0.00403175935363165,-0.171935004230665,-0.062822223080431
149,988,0.0400971277589427,-0.140655789537149,0.930873876118217,0.10537442415665,0.0582067628780992,-0.0150372639275552,-0.0127326902408026,-0.240300914990479,-0.00933036388069143
150,989,0.0410767359750865,-0.139892030778962,0.930775097376594,0.103522421228723,0.0606134040466578,-0.0135310909673012,-0.0166739153608626,-0.326118222059704,0.0757189844203355
151,990,0.0420422125292226,-0.139156900502132,0.93074016902351,0.102483346621636,0.0611552185882418,-0.0117685975370445,-0.0119953566226131,-0.339840415367319,0.112250665835988
152,991,0.0429645264973633,-0.138421578550134,0.930734605663974,0.101300682493334,0.0602840949719875,-0.00948235766612918,0.0278499096413852,-0.432091694783393,0.161577616935067
153,992,0.0438955680672492,-0.137750203882902,0.930748920057182,0.102391684312556,0.0573099861377343,-0.0079207826386072,-0.0458712591879644,-0.396247602991216,0.197230567001884
154,993,0.044828468476852,-0.137137419101459,0.93078148598619,0.104173825860713,0.0539241649822192,-0.00656809669796886,-0.0246977819861568,-0.409042486955828,0.202184910499564
155,994,0.0457167149465316,-0.136533092859571,0.930842216921936,0.102452450124871,0.0508301755153866,-0.00291560139263619,-0.0408243555660163,-0.334645032840857,0.316814563933436
156,995,0.0465565075585496,-0.135981604655254,0.930954357805196,0.0976662954144648,0.0470761201776486,0.003272095685772,0.0718416958225887,-0.241658895211512,0.405556075033783
157,996,0.047352614209661,-0.135488213179324,0.931127315019699,0.0926397836714355,0.0417869103034253,0.0104488206848587,0.0103106382135161,-0.1715873335773,0.49130416921543
158,997,0.0481241126972727,-0.13506581258441,0.931346788071591,0.0892315034859548,0.0357948611835123,0.0164047933946229,-0.0296494552026899,-0.173317973126976,0.465050353507834
159,998,0.0488965582261448,-0.134706958706363,0.93159451447867,0.0873182095691296,0.0300109302237915,0.0213872370958521,-0.0130597661190685,-0.199723549660841,0.420394634176226
160,999,0.049679977572921,-0.134357099262568,0.931851634752188,0.085767359535166,0.0280224869205717,0.0244941354401966,-0.0729068651823352,-0.200130068681721,0.329603092274555
161,1000,0.0504507716248017,-0.133953564189602,0.932107653187453,0.0825494540679552,0.0301537925342006,0.025356802651666,-0.0801734466645416,-0.176552869793678,0.10170000993835
162,1001,0.0511647922543856,-0.133465851324758,0.932364255084359,0.0765136020792657,0.0340824827079061,0.026323373950254,-0.0643158951807015,-0.0872684754413667,0.00413051586751241
163,1002,0.0518250091096188,-0.132881384169402,0.932655187367417,0.0703294739431667,0.0393394984106768,0.0272392385599686,-0.125260479396612,0.010558349142292,-0.0445854516819044
164,1003,0.0524246766383661,-0.13219472955105,0.932929181157415,0.0649329021159912,0.0459537089201013,0.0273640698225836,-0.175643277781951,0.125180381750348,-0.0704904156100191
165,1004,0.052969625635899,-0.131404921235001,0.933183413188244,0.0606318060572196,0.0530859140948813,0.0269288688078716,-0.165649299570309,0.150314655076229,-0.0818306623779328
166,1005,0.0534531509882359,-0.130533185534638,0.933415804542944,0.0568611054563715,0.0603575031217797,0.0260511039754919,-0.120187730168517,0.152441012798188,-0.0946084274900127
167,1006,0.0539017532223998,-0.129621433428027,0.933612742090044,0.0525262399407226,0.0657965913678311,0.024456875027184,-0.12071537801716,0.204094661717396,-0.173205430199004
168,1007,0.0542861317291419,-0.128708568453191,0.933786678716779,0.0490128464221726,0.0698984884300762,0.0218945613089579,-0.141044978131767,0.191178086301011,-0.203893529379838
169,1008,0.0546372260436568,-0.127815441972661,0.933938009378049,0.0447391716745115,0.0725391347673488,0.0200047713765411,-0.099934660049207,0.209767407589835,-0.206262500350976
170,1009,0.0550184449480218,-0.126990547532495,0.934066669040633,0.0426289544134292,0.073313704222472,0.0176964360445889,-0.0800065516715448,0.249604790181865,-0.221784369920277
171,1010,0.0554480350477982,-0.126240119949591,0.934109331577912,0.0406197762682001,0.0731815397769308,0.0152939777081996,-0.121784377825295,0.278014696779179,-0.247158003561115
172,1011,0.055918702414625,-0.125661452190947,0.934108486287633,0.0392064029048182,0.0712068104596145,0.0124409090395502,-0.230987230450971,0.354568392586311,-0.272384947051822
173,1012,0.0564131904449446,-0.12513612732078,0.934202687045423,0.0376139833938529,0.0693143193237734,0.00982369996931566,-0.273318864667525,0.32003485323735,-0.303105719234493
174,1013,0.0569327200736053,-0.124755288286008,0.934268206470845,0.0371787998388874,0.0670054744019968,0.00753473788778526,-0.239397344225855,0.363573211290424,-0.284480784535476
175,1014,0.0574694854319396,-0.124379205758653,0.934274779229883,0.0379306454701202,0.0638452468934725,0.0048932061116824,-0.26167772435009,0.338227136998447,-0.281463701339478
176,1015,0.0579722730275851,-0.124024223456696,0.934331168495456,0.0369210032767555,0.0608174798881264,0.00416930907407011,-0.233106396455833,0.365178924285124,-0.21466156790874
177,1016,0.0584090978260991,-0.123858961376436,0.934363859556617,0.0355986702843123,0.0544252847241113,0.00357643135237507,-0.206076374561763,0.268154332349008,-0.174937629476712
178,1017,0.058803946943593,-0.123620946720989,0.93434890179722,0.0341475017960728,0.0483211351774872,0.00252381913688518,-0.264627256949194,0.190423997532525,-0.140011393312156
179,1018,0.0590550138021407,-0.123517846030123,0.934266107464284,0.0310451181551451,0.0419709030887946,0.00113038081422782,-0.250690114094396,0.139940836706501,-0.113916792544774
180,1019,0.0592022715341782,-0.12338615612461,0.934153003326281,0.0262172326450037,0.0368884265155918,-5.75193820627097e-05,-0.19471149425641,0.0201610697596456,-0.0874729769586771
181,1020,0.0592273660690896,-0.123289089512406,0.933993831874304,0.0200905984557581,0.0321945356541644,-0.00137989849017423,-0.188393536916609,-0.0202367945518338,-0.0411918571484899
182,1021,0.0591784742578683,-0.123165934873785,0.933760501325399,0.0151610861712948,0.0292446976452411,-0.00341170867601164,-0.168356440667602,-0.0750609913180279,-0.0407850948151473
183,1022,0.0591944698589697,-0.122904179960267,0.933567638438739,0.0128983797793575,0.0306981454285675,-0.00547149940243562,-0.112357364015674,-0.142875051336344,-0.0400346590096694
184,1023,0.0595516659843082,-0.122128379817018,0.933411963380441,0.0175155377504345,0.0418164429673527,-0.00702971127108634,-0.0787503162692065,-0.0956673338829711,-0.024561750882155
185,1024,0.060389793602905,-0.120633505876312,0.933302663432197,0.0283576706195804,0.0633244823511484,-0.0070214380271725,-0.10113311332252,-0.0814984889848808,0.0390452132280986
186,1025,0.0615775833413327,-0.118684077500746,0.933234849795592,0.0425896911601595,0.0893350272924118,-0.00743552563004431,-0.189829886708722,-0.0637438016652181,0.0083835495772543
187,1026,0.0629522817911966,-0.116629578507939,0.933187222008142,0.0568627301032131,0.112077646733419,-0.00757587356828297,-0.146739639146044,-0.054148877424313,-0.0254319592041895
188,1027,0.0643238762731446,-0.114704655155817,0.933152439750599,0.0689503106390325,0.129165533821388,-0.00793363578327713,-0.232708867262105,-0.090828305456541,-0.0223279746313025
189,1028,0.0656236775192498,-0.113007774851773,0.933111242140925,0.0775006262250865,0.139224779399056,-0.0083950095929747,-0.317880303561671,-0.0512300356595231,-0.0214625546200629
190,1029,0.0667920102779323,-0.111558332904914,0.933065390569891,0.0809085234815097,0.142843878147761,-0.00793669443153406,-0.336519956971084,-0.0611568853382242,0.0111624922314696
191,1030,0.067815982892038,-0.110342636166327,0.933010508883902,0.0809934348390241,0.1419696473297,-0.00791025546681719,-0.378668007364424,-0.159393504651709,0.00191526034361346
192,1031,0.0686861747322578,-0.109353213753264,0.93294476822128,0.0778252071669813,0.136020897356488,-0.0080868701588277,-0.382825426108748,-0.106041077963863,-0.0436622837102165
193,1032,0.0694312761933861,-0.108552075837616,0.932860203789734,0.0731899349931362,0.128143393142344,-0.00869888399979531,-0.427114356454885,-0.137581128162387,-0.0369328232588434
194,1033,0.0700656161792784,-0.10792228725111,0.932761342633412,0.0671599864803979,0.117928395241109,-0.00917288643590371,-0.403995623049718,-0.145185451627555,-0.037832626731781
195,1034,0.0706018700635434,-0.107438716623835,0.932650510207677,0.0602634713953336,0.106002710181555,-0.0102358805212752,-0.35178315440356,-0.233319461274726,-0.103623192647551
196,1035,0.0710700922774725,-0.107084171795318,0.932523869534997,0.0538867488674303,0.0935308522180371,-0.0119765649762572,-0.30254662335555,-0.240693791927184,-0.16678749528149
197,1036,0.0714774049882807,-0.106839570045034,0.932389766249811,0.0462038654805503,0.0808655506188378,-0.0128296398369074,-0.212210484726768,-0.240827814917809,-0.187885142782613
198,1037,0.0718439328015371,-0.106670205444787,0.932248590675476,0.0393564905320759,0.0692478204506697,-0.0142159339154706,-0.192438034109283,-0.22973323702326,-0.228235041746275
199,1038,0.0721628171490431,-0.106533763915719,0.932100260241295,0.0328967413609248,0.0601650236631304,-0.015773955876277,-0.156032976564868,-0.195278536965149,-0.266044569320797
200,1039,0.0724276101558236,-0.106420159006824,0.931950605278473,0.0266428405957002,0.0511524157081617,-0.0165470370510724,-0.107517488533722,-0.186051904468279,-0.238021546544895
201,1040,0.0726350509043417,-0.106323944716173,0.93180404300824,0.0210056335534535,0.042916655772689,-0.0176464620400248,-0.0304298965743549,-0.208538294764532,-0.288203041023263
202,1041,0.0728007751140405,-0.106257801537988,0.931662191459358,0.0154463812710175,0.0344761135678825,-0.0185205926752406,-0.0297391431019222,-0.215925953176933,-0.29952502708911
203,1042,0.07294047070934,-0.106221432151633,0.931524376794504,0.0110125070737702,0.02713526616722,-0.0194205445349029,-0.038218508414201,-0.214045610192799,-0.300163888959745
204,1043,0.0730524984593479,-0.106185824463785,0.931382190225371,0.00819920229932721,0.0209807967002026,-0.02147572969299,-0.15237009792681,-0.147167739982277,-0.324234495649068
205,1044,0.0730908044023939,-0.106111793339906,0.931244322697733,0.00380284187080277,0.0165356640730719,-0.0230066601864668,-0.064954559194017,-0.190368695930409,-0.357844309398251
206,1045,0.0731660265627132,-0.105996939510775,0.931075257663773,0.0014525720646129,0.0139362437611025,-0.0254471550640721,-0.0343101610848683,-0.140824374544347,-0.423300900270193
207,1046,0.0731656100622666,-0.105852984203822,0.930935366364642,-0.00228026643396758,0.0137013495914768,-0.0282745822211176,-0.106900497865755,-0.174742683669558,-0.46005818744509
208,1047,0.0731082372656213,-0.10568239967819,0.930792752709379,-0.00695617305180912,0.0150768633710659,-0.0305203565393717,-0.0921210722651571,-0.136438127934311,-0.432420279857972
209,1048,0.0729977093395316,-0.105484631985496,0.930640901724289,-0.0120107914523708,0.0172657496754347,-0.0333178357883164,-0.244142117363279,-0.0915844401759517,-0.438339886679231
210,1049,0.0728132494768656,-0.105280593860524,0.930495043748561,-0.0190887942724984,0.0185673914465468,-0.0340042234217368,-0.156611372620783,-0.0771841652343879,-0.391449482991973
211,1050,0.0725829203877807,-0.105084264270981,0.930348826999345,-0.0251319471436028,0.0199682910915561,-0.0340981953037971,-0.2052757660041,0.0058691933362515,-0.3134050890078
212,1051,0.0723481762530363,-0.104902612010794,0.930192864258351,-0.0279739665886377,0.0205201213818783,-0.0354174121337864,-0.302376995166787,0.0347995913371787,-0.321331952754998
213,1052,0.0721318147266308,-0.104754545270598,0.930027338436013,-0.0295656145760849,0.0196413648622838,-0.0350023946390202,-0.318528228409656,-0.011017506594514,-0.157112386571566
214,1053,0.0719581447025308,-0.104661994289098,0.929858863162472,-0.0299045150925099,0.016534774302824,-0.0334714614828386,-0.292065447331306,-0.0400614224417297,-0.0107582112966887
215,1054,0.071839217927701,-0.104615062585906,0.929693436084108,-0.0296365216893739,0.0131258958942563,-0.0297146373054551,-0.399918278756098,-0.00369456440767591,0.300973653430059
216,1055,0.071781702770621,-0.104591376492037,0.929563289408609,-0.0287275224413922,0.0092726915514429,-0.0221089229174864,-0.361418454131251,0.026806706444978,0.711162243362676
217,1056,0.0718301438492113,-0.10455912286833,0.929485556981947,-0.0228203695668041,0.00731497254708155,-0.0117550284587926,-0.226917495404638,0.0455125372300923,1.10119136018297
218,1057,0.0720210439547965,-0.104511238795622,0.929472035841199,-0.0121776064340113,0.00616188621754054,-0.000466417592396054,-0.0557528171138793,0.125993185145891,1.21106698708104
219,1058,0.0723626437010392,-0.104445591171295,0.929516619914376,0.00223179581295029,0.00472770771205104,0.0114050304036357,0.127773092174581,0.0629723151227206,1.30488181998098
220,1059,0.0728338304169055,-0.104025618172512,0.929655490224459,0.0173996231871584,0.0118342076309618,0.021408806112428,0.242692095034214,-0.0969671508172788,1.14160763014073
221,1060,0.0723972456929684,-0.103910831062498,0.929763534005329,0.0200856772428393,0.0145886231545702,0.0263343486400154,0.317314102746996,-0.317477714340727,0.799869130834718
222,1061,0.0727679578482932,-0.102996090515238,0.929840582724207,0.0282994974176251,0.0268373834909542,0.0276510231011171,0.308391063854109,-0.380029174146717,0.53413369127376
223,1062,0.072707832870278,-0.102430480942293,0.929884348163907,0.0290612034445222,0.0367419408083474,0.0267792086552922,0.352168812577195,-0.269641968449424,0.304227593035971
224,1063,0.0727614548795738,-0.101852547009799,0.930973803431586,0.0297841536236151,0.0463693991988816,0.0288673995267736,0.300434489517579,-0.135012107479414,0.135491719834685
225,1064,0.0727482684314001,-0.101452389376282,0.931646911604203,0.0284993468042154,0.0535270744130529,0.0283747386346853,0.310022298637255,0.127858293011847,0.0677915022722219
226,1065,0.0728656250830955,-0.10106782502696,0.932100400436338,0.0296770808696279,0.0598275725532765,0.0258621482997489,0.27125303063462,0.372329224778457,0.0332953221898512
227,1066,0.0731706991220908,-0.100689491613801,0.932413912580183,0.03382999690352,0.0650644741857722,0.02314503581844,0.324440042298869,0.57675721995334,0.0467804994372228
228,1067,0.07365545761656,-0.10023873461323,0.932666148457906,0.0406253577718638,0.0696861478081371,0.0206799779950627,0.297451979510371,0.785855399726965,0.0729419389127643
229,1068,0.0743204731787154,-0.0996753603801638,0.932882168257347,0.0494665942397104,0.0735218676079678,0.0186978217761356,0.251693562980182,0.849045129624095,0.104917898446801
230,1069,0.0751306056157285,-0.0989515950967719,0.933081848778288,0.0588473741621684,0.0775143717162038,0.0168690240424796,0.22630433191802,0.863842429180681,0.0786654572246352
231,1070,0.0760393861558581,-0.0980420135403789,0.933271365931064,0.068770541183678,0.0822684141333575,0.0154054462720839,0.202721385925015,0.750802738931643,0.113512865105889
232,1071,0.076965483779934,-0.0969461814485288,0.933473013567095,0.0755647696912738,0.0880462833993323,0.0161495186325438,0.296861677022537,0.768070027045984,0.155312433289801
233,1072,0.0778797180227145,-0.095661097160133,0.933692752256275,0.0804802183809188,0.0968313238401544,0.0175828838199598,0.348365528694829,0.657121355435418,0.183373644739983
234,1073,0.0787601916663184,-0.0942236568861504,0.933938834269987,0.0834439960085606,0.106979334194192,0.0201751018816128,0.452144820594601,0.652518480911033,0.202637842401928
235,1074,0.0796086554933255,-0.0926762064352444,0.934204313758367,0.0852450091805732,0.118317750007082,0.022535814401881,0.417850808408133,0.649770147388274,0.194169717403659
236,1075,0.0804039630186777,-0.0910671637700677,0.934483744166471,0.0856044952426728,0.129943654222669,0.0249827008003218,0.409532963884288,0.659334021743663,0.202413689728058
237,1076,0.0811498975812976,-0.0894360994999613,0.934764003497827,0.0861380771371835,0.140082414946585,0.0264826424738845,0.359493147371781,0.614236679306002,0.203395685558562
238,1077,0.0818354189856868,-0.0878244042056114,0.935040576879712,0.0849665677244874,0.148272046272831,0.0283077130768763,0.322118342447884,0.518899602067795,0.252153671754263
239,1078,0.0824679137456249,-0.0862837961826824,0.93530918909114,0.0839868229812609,0.152471258903115,0.0297052538573605,0.399802356670723,0.394285968095552,0.253463361974895
240,1079,0.0830468864855971,-0.0848482002914312,0.935567731779362,0.082489731730642,0.15336791299465,0.0308849330109632,0.457924695850511,0.293056048657138,0.257889502063646
241,1080,0.0836243578035012,-0.0835388455336871,0.935806660122015,0.0825794124668091,0.150397347919645,0.030740687102808,0.49905136074341,0.151909366274631,0.229033861753428
242,1081,0.0842346528896362,-0.082332036878232,0.93601963414586,0.0830476859141723,0.146254914352454,0.0290299253623942,0.450441111674005,0.114640041754382,0.136756252287425
243,1082,0.0849082294970047,-0.0811914755288072,0.936198846649783,0.0843267453384585,0.141118103036739,0.025641306850482,0.394277532920161,0.0590731882280395,0.00688423240969002
244,1083,0.085658994939115,-0.0800807353972771,0.936337193541782,0.0861839263005258,0.137296467715243,0.0206974949261183,0.355559024054875,0.0117775762883496,-0.139765696467776
245,1084,0.0864909682814523,-0.078970378839236,0.93643678614259,0.0884094874098495,0.134243240410221,0.0160721297249366,0.313253113192401,0.0504141000319614,-0.16782766898821
246,1085,0.0874276915462567,-0.0778327959053927,0.936495753954592,0.0909809941501018,0.132377930071773,0.012332984347688,0.32290621964268,0.103281444220721,-0.155175895170469
247,1086,0.0883559769118936,-0.0766192211240956,0.936553901086945,0.0924156391768116,0.132027517532203,0.0102069042875181,0.388029247586768,0.259805036071113,-0.124795073122377
248,1087,0.0892991202673085,-0.0752869020924317,0.93660667173164,0.0940991965018312,0.134199334513952,0.00828789745890026,0.392384062692794,0.328129415868401,-0.117147841190411
249,1088,0.090239633691255,-0.0738234024612925,0.936658715981618,0.0954152307581953,0.138270538214809,0.00674732590442526,0.411665988066011,0.373662937898133,-0.134253493054419
250,1089,0.0911571347915441,-0.0722461330213251,0.936723856365357,0.0950709271604369,0.142662411677896,0.00703013243965692,0.461653989946647,0.411958791825172,-0.0858892059494393
251,1090,0.0920646766948136,-0.070567677644336,0.936797439773158,0.0954564870363465,0.14844461791435,0.00656735105522269,0.377953414306681,0.362901795608507,-0.0910787468513673
252,1091,0.0929736152987107,-0.0688078095946708,0.936872339087743,0.0963016848067443,0.155180950308484,0.00516608119665792,0.31905907889741,0.325068761765717,-0.135960484957574
253,1092,0.0938934167993805,-0.0669964212571035,0.936943055435439,0.0967531019319116,0.161515469209798,0.0034465272820713,0.214797567491021,0.301500733336069,-0.155153300769923
254,1093,0.0948502662035945,-0.0651572340811334,0.936999217378028,0.0985815929371647,0.16737657713129,0.000642200594527561,0.116622591491188,0.264989601326645,-0.189877117180917
255,1094,0.095860517628711,-0.0633183323687776,0.937041059801767,0.100757473246991,0.171907648139867,-0.00173639618678145,0.0637972870903397,0.295414542155639,-0.174179521210074
256,1095,0.0969253198784181,-0.0614887193294288,0.937066403446078,0.10365953408803,0.175129480288552,-0.00454493723474255,0.0394809851998966,0.173616667031753,-0.200392792575256
257,1096,0.0980416495468532,-0.0596911769316718,0.937075087230575,0.106253172090136,0.176518400809115,-0.0071818157922932,0.00293904447045742,0.150266668117052,-0.216893019091875
258,1097,0.0991854618017202,-0.0579251442166403,0.937072765295049,0.108536145571072,0.176928313036465,-0.00927310800378638,0.0579601057292236,0.0887864542472774,-0.215689052239727
259,1098,0.100354401211288,-0.0561823406749712,0.937059568187218,0.110603511282155,0.177100332670336,-0.0113826473603412,0.0115732615592864,0.0547201798972061,-0.214069344936381
260,1099,0.101529664889345,-0.0544564700589503,0.937037171309602,0.111754349228401,0.175873969379331,-0.0133899572757024,0.00627130375985903,0.0210542740771674,-0.243053443969696
261,1100,0.102703973899462,-0.052715065301351,0.937004177027147,0.112917517142572,0.174769662236257,-0.0150477684165554,0.00791387296064314,-0.0227386235314673,-0.216875897550442
262,1101,0.103867243330369,-0.0509519602697107,0.936961252096808,0.114013912752373,0.173690592110741,-0.0170181167096381,0.024615961321744,-0.0367676508505058,-0.261765622165542
263,1102,0.104994232247188,-0.049151598771218,0.936910600441255,0.113786046218264,0.173499945116339,-0.0184292136044188,0.0801728959258876,-0.127613927645353,-0.258189086096611
264,1103,0.106086647617112,-0.0473223378228613,0.936856422396569,0.113065676718311,0.172374601726691,-0.0190492392768344,0.123336319240859,-0.146973234643364,-0.233135624290466
265,1104,0.107126196201692,-0.0454587198492984,0.936801576960388,0.110895365643482,0.172405246438237,-0.0195626864402809,0.150290040482826,-0.198089091431263,-0.252506411547424
266,1105,0.108166645182611,-0.0435868774174447,0.936735643665291,0.108538848102354,0.172477819224433,-0.0191065248145495,0.129869084504445,-0.197591380612204,-0.158555488734282
267,1106,0.109138980614661,-0.0416813973682321,0.9366765634885,0.106343443674244,0.173272306118529,-0.0195836332404195,0.0718382796240296,-0.219944557012289,-0.184749570973297
268,1107,0.110098263461133,-0.0397616262705109,0.936610887392521,0.105146241444803,0.174768354324293,-0.0199303153096989,0.0540008844613546,-0.201136657873063,-0.129421869352098
269,1108,0.111082468125033,-0.0378360454570561,0.936532767120786,0.105661391556257,0.176501427660997,-0.0207340992527856,0.0383890523380499,-0.173900350077822,-0.118526872566002
270,1109,0.112117006258045,-0.035905382240837,0.936440684325668,0.106512762080575,0.178479067757096,-0.0211524424948308,-0.00743364622297175,-0.150083663639945,-0.0748164649594929
271,1110,0.113202422973658,-0.0339493481185627,0.936336593704783,0.107729145736136,0.181410491392371,-0.0210497114809461,-0.0617890687448085,-0.139080500003428,0.0061402537509865
272,1111,0.114347946550529,-0.0319736642525108,0.936221727767909,0.11069961937789,0.183364006653658,-0.0210905914729513,-0.0730333117642432,-0.0687615098569088,0.0224411610481093
273,1112,0.115549353417107,-0.0299485494218186,0.936098075736037,0.113730362988521,0.187018904745846,-0.0200379244849124,-0.102515580260347,-0.0440194319611939,0.14676492768315
274,1113,0.116801101493116,-0.02787041741991,0.935973382086216,0.117238981231212,0.191038885547266,-0.0184564003771173,-0.0924477092771532,-0.0265044793965488,0.219131344018492
275,1114,0.118069845373225,-0.0257857789523257,0.93586520050373,0.119611962986319,0.192959893194132,-0.0153184421993609,-0.0348985550757,-0.0502723004148298,0.293655375745986
276,1115,0.11932040201907,-0.0237457804623444,0.935795517012675,0.120124938290322,0.192800901135811,-0.010387745831341,0.0559098150380474,-0.18338601085246,0.393069163247362
277,1116,0.120534472265233,-0.0217856936806305,0.935780430596644,0.118952538722776,0.190719846075198,-0.00387793439739248,0.0791119991321791,-0.206335314087892,0.477967868935688
278,1117,0.12172991437789,-0.0199011535045789,0.935819675710921,0.116657087143467,0.187664928772764,0.00294738537432695,0.0212811010126005,-0.223810756522886,0.504897479039362
279,1118,0.122911833643889,-0.0180718597860896,0.935912699238795,0.114712359311536,0.185317909518764,0.0106890448069493,0.154539559777464,-0.294501214558041,0.578904947938814
280,1119,0.124101256357197,-0.0162595286160518,0.936050590366261,0.114066151013494,0.184025770596292,0.017956284952739,0.14485432378079,-0.261058097955791,0.622563284969241
281,1120,0.125323260513382,-0.0143813225179749,0.936205736709747,0.115595915631134,0.186356008090781,0.022938162123823,0.041328467810494,-0.306575088582184,0.620057152473049
282,1121,0.126570659945579,-0.0123990471519129,0.936365934632176,0.11767663863051,0.190378420614171,0.0269443053203117,0.0326217838082155,-0.363187698426857,0.611484004172399
283,1122,0.12785501961647,-0.010367516801232,0.936533918371789,0.119933620943656,0.193698298957515,0.0309797799823882,-0.0320211282541997,-0.367119305681531,0.653247028445421
284,1123,0.129176874478882,-0.00831604419928835,0.936707651717163,0.122169346023225,0.195753007030647,0.0347182163365037,-0.0116540862895512,-0.406165090290746,0.651733130907061
285,1124,0.130553082731109,-0.00600414823148145,0.936884359678026,0.12494355672485,0.200819721381125,0.0369980528161437,-0.0586617946457377,-0.347999473168323,0.57403238308097
286,1125,0.132051993955595,-0.00370638108835386,0.937055922692683,0.131318794189621,0.204548080896866,0.0371668890924706,-0.108361031555029,-0.339159987583523,0.489779416189291
287,1126,0.133712560635402,-0.00136986479770407,0.937223154892583,0.138627330962514,0.207345610262147,0.037930322794092,-0.103246130619395,-0.207590723752856,0.461225282417454
288,1127,0.135436514728912,0.000903753119175182,0.937430955484442,0.144719966451145,0.208300108820656,0.0402793014852393,-0.100150303347527,-0.0868118954339241,0.439807230236944
289,1128,0.137183988745738,0.00313371485099144,0.93767186239482,0.149902523776831,0.209124761007574,0.0423076652208467,-0.158026022519391,0.0740107332557447,0.334029910236729
290,1129,0.138899329342434,0.00522462256903902,0.937952552372233,0.152580972456609,0.20845635030227,0.0440562764964358,-0.308560856579304,0.0978050216333811,0.252420401066593
291,1130,0.140516364028046,0.00730293028830965,0.938267843836349,0.150256325922778,0.208116540546568,0.0462276506470714,-0.352048803765503,0.143751339611886,0.159980279493835
292,1131,0.141987347392224,0.00925716473399862,0.938614415807376,0.144070928384444,0.205117739214071,0.0493319414693571,-0.237754117170633,0.108210491450698,0.0982453419902485
293,1132,0.143295044401229,0.0111210458893189,0.938992083158836,0.135599542630302,0.20047961727846,0.0520689816404459,-0.235592975763983,0.0884959091450011,0.0368267254509186
294,1133,0.144540294481043,0.012572094380599,0.939359764161793,0.129530201782367,0.191693692495119,0.0523959145941177,-0.192290277312572,-0.0317802907343812,-0.0505420242435491
295,1134,0.145868818199856,0.0132005016579605,0.939655601772947,0.126154108798927,0.166681634295172,0.0503071614576175,-0.324581865688033,-0.107441027360029,-0.13981633534874
296,1135,0.14733061882264,0.0127217174132601,0.93984872952231,0.124694801730542,0.125184247384234,0.0487632504016611,-0.164085175705157,-0.0304923255178601,-0.167220413931081
297,1136,0.148861219419957,0.0115816175134864,0.939888714006676,0.126871303049123,0.0799819874968234,0.0432042102421688,-0.191078803539431,-0.000366066271350425,-0.320939262296381
298,1137,0.150319961022664,0.0103131302670076,0.939761672628838,0.128774986430781,0.0390712355350105,0.0347282732058078,-0.115397565841324,-0.143688723007037,-0.478381835885957
299,1138,0.15161324505656,0.00912738618051033,0.939521099897706,0.1280281450864,0.00412029504678024,0.0270442004234504,0.0433482405560887,-0.23148788926801,-0.485349312623796
300,1139,0.152740645603323,0.00809609072027608,0.939363472161249,0.124810739778548,-0.0235500680701688,0.0211764575285693,0.163495877151627,-0.209993082633159,-0.494674345322831
301,1140,0.153801615170633,0.00716526171062539,0.939181637298122,0.122425204905846,-0.0426785470500322,0.0123176550512983,-0.0185709379086555,-0.0180213410580193,-0.673510310426225
302,1141,0.154908339172083,0.00641588047322991,0.938964319290419,0.123335678115048,-0.0507325906723249,0.00132730960523503,-0.15698009835075,0.357804134131462,-0.756081650463867
303,1142,0.156028015725679,0.00586279458288635,0.938735045306207,0.124712300342636,-0.0610714489457556,-0.00540077615873416,0.282540983507238,-0.288094499100664,-0.587243293397215
304,1143,0.157216455823729,0.00549349273476643,0.93851147452706,0.125142147147138,-0.0670759886075823,-0.0104736116991086,0.467879384582724,-0.348776999437244,-0.592313917509735
305,1144,0.158486849093643,0.00532641521961989,0.938286623649303,0.126981614765887,-0.0680645697486613,-0.015197431915975,0.539741882724512,-0.353388179968111,-0.561041674399593
306,1145,0.159805618456711,0.00540362257073586,0.938057459214711,0.127972498782772,-0.0610279993459686,-0.0193270336387045,0.591514275223764,-0.0745119194228783,-0.580064344228859
307,1146,0.161210301195237,0.00569928047112491,0.937827487157039,0.131755215705212,-0.0474345570713754,-0.0255532565597094,0.545441501439112,0.242643218909969,-0.727574037644035
308,1147,0.162721105959157,0.00621836661895441,0.937575459970045,0.137637996457986,-0.0308200517357908,-0.0320018680304234,0.520323784080161,0.464691574195757,-0.757186769530054
309,1148,0.164303658341256,0.00691664047628949,0.937303072437868,0.145065196329815,-0.0146479853419464,-0.0392013501912169,0.567861851692255,0.447512412482103,-0.848172776521067
310,1149,0.165932063374177,0.00772997032664541,0.937005091507779,0.15333128613494,-0.00127705087914609,-0.0478334805792131,0.532677329072896,0.373013590365549,-1.01371569735002
311,1150,0.167603089874832,0.00859410578566764,0.936689264190838,0.160890172368135,0.0091507669062826,-0.0550627911957811,0.542487577957887,0.329154815842095,-1.03683672030875
312,1151,0.169284302653012,0.00946130313389712,0.936375065141353,0.166201380611595,0.0168517589276691,-0.0608314283811751,0.56500434947041,0.252403001350593,-1.06406724607228
313,1152,0.170961765362725,0.0102979616012542,0.936053356029953,0.171656908961534,0.0211762403324298,-0.0659042244721804,0.524912288768728,0.18555381126055,-1.03293651644182
314,1153,0.172608476185772,0.0111025673992252,0.935726027011578,0.176026282076009,0.0237651978521381,-0.0691475652858839,0.466180844512088,0.102401020271141,-0.886882137720292
315,1154,0.17417339562866,0.0118477679342316,0.93544570943658,0.173550187282911,0.0218381200376768,-0.0649386474014475,0.173875111166536,-0.0840096194683734,-0.362781154395859
316,1155,0.175650442046411,0.0125090970060635,0.93521791907378,0.167406272460505,0.0185416876556485,-0.0668963725053675,-0.0422062620934544,-0.0117443926772525,-0.93262787823275
317,1156,0.176996874562946,0.0130862997089684,0.934994276373666,0.158203871228508,0.0124975161776309,-0.0617659331693232,-0.187080168018713,-0.357864407778551,-0.0892522946701449
318,1157,0.178243172241932,0.0135463608290616,0.934732544508967,0.149132795513828,0.00689992831021072,-0.0564408421897324,-0.13663367814996,-0.214822381522252,0.0634680503750798
319,1158,0.179412081906153,0.0139577857453027,0.934470589408914,0.140752065880192,0.00369140343892582,-0.0500274023965862,-0.178137786073425,-0.135020689596348,0.368448973853285
320,1159,0.180503009556374,0.0143738271545489,0.934282246021023,0.133699576425062,0.00607639900287393,-0.0405271630564812,0.113392388484825,0.168950185572323,0.259043069199564
321,1160,0.181498896114084,0.014828109430841,0.934168325730282,0.124989955308115,0.0153162593400422,-0.0300836859521399,0.192721952967382,0.680978152373732,0.140686191502584
322,1161,0.182339227264588,0.0153627603487806,0.934105296778103,0.112105234965706,0.0257850380199907,-0.0225384858854184,0.135091418499163,0.659963666507456,-0.0495682498776077
323,1162,0.182935483835224,0.0159426801489605,0.934065813596738,0.0939708976357995,0.0351951166580397,-0.0177987410307764,0.0880899488515357,0.430435515950663,-0.143391881558533
324,1163,0.183280194306001,0.0165351750894148,0.934028922343354,0.0775480848160972,0.0435922575484253,-0.0157404274095852,0.133994868428779,0.0977462589192413,-0.0536592265365126
325,1164,0.183450477565894,0.0171519408166076,0.933915629977321,0.0663038372375868,0.0538418465522045,-0.0148504751398826,0.278889691689102,0.0236249956860827,0.22996006183095
326,1165,0.183555388724843,0.0178166709713451,0.933835828394183,0.0601637220350356,0.0651088419346462,-0.0114782780432279,0.559827164963267,0.178801217708201,0.445747461278209
327,1166,0.183763234609852,0.0184989074566539,0.933779762562438,0.0590126514631306,0.0732421321588286,-0.00881147758697347,0.336655660274688,0.0571608096057895,0.533619928010923
328,1167,0.184145150648172,0.0191914250764223,0.933725345673294,0.0615431340292122,0.0746310048678976,-0.00986598496767893,0.240994940238657,-0.402075113843672,0.271271112432771
329,1168,0.184453751877562,0.0200935084824369,0.934027091109959,0.0605806922777233,0.0785611875373105,-0.00464024121003964,0.161162572208272,-0.653697330451901,0.372858424087754
330,1169,0.18631288487414,0.0207202497053172,0.934212408461094,0.0770536270779126,0.0764784615558426,-0.000479280819751702,-0.0505403661284181,-0.561200064811064,0.375737836027638
331,1170,0.18705087064943,0.0216938023359279,0.934462398551406,0.0816671226419583,0.0775456130659554,0.0047332391351824,-0.00754915129058529,-0.480918167699891,0.330784764866821
332,1171,0.188522454439884,0.0224056985338272,0.934712991841759,0.0924780293170218,0.0770375900265239,0.00960234320251212,-0.133607127611861,-0.484222009069872,0.341031507661501
333,1172,0.189806283542002,0.0231497095895577,0.934958261861587,0.0984113671634424,0.0789683667945677,0.0138800173728911,-0.256085623714553,-0.328216955821552,0.293555278244503
334,1173,0.191159722131031,0.0238798504371625,0.935194105094222,0.102700643540162,0.0805631037596587,0.0189048409874413,-0.230589437118534,-0.282882408223434,0.373239815573627
335,1174,0.192376384234218,0.0247338145385823,0.935412294493503,0.103896118535567,0.0853481581946249,0.0232567356631909,-0.26146156768854,-0.304908615266516,0.421752630439304
336,1175,0.193546947392749,0.025710280131245,0.935602518515522,0.104354920304382,0.0920229311582744,0.025803146588085,-0.305223955370449,-0.218620422475541,0.352660908952319
337,1176,0.194667494023197,0.0268396950594492,0.935745976490877,0.103793670608685,0.100837254621694,0.0252598393963628,-0.460598516266465,-0.269962462241112,0.20242783825696
338,1177,0.195814175335477,0.0280914374984349,0.935828595428498,0.103905463159963,0.109511321801162,0.0236645014055986,-0.589308385323933,-0.258592601013112,0.178287996420995
339,1178,0.197005413662809,0.0294344088664257,0.935861769703487,0.104051376048182,0.11592570211604,0.0227577445675383,-0.558144197144057,-0.240534404097334,0.188492326830231
340,1179,0.198262378095299,0.0307932874349497,0.935863955220139,0.104002839825197,0.118711870924571,0.0223116658825115,-0.57115660236942,-0.205626512148363,0.156025946480966
341,1180,0.19958656858071,0.0320892190037066,0.935846100146552,0.103807975767512,0.117060689720657,0.0214137892254346,-0.635703256983965,-0.144975748107695,0.0536197298420961
342,1181,0.200960697056107,0.033295418074039,0.935812760959479,0.10428370466414,0.112376457350253,0.0198694834929743,-0.681831594193719,-0.176917583204615,-0.0288320912549161
343,1182,0.202349429902705,0.0343732275953402,0.935770817516918,0.104423194069091,0.105143773050701,0.0184245124978911,-0.651040480333325,-0.125723944415049,-0.100607376617493
344,1183,0.203762099601382,0.0353184261675548,0.93571313396856,0.106521420102384,0.097728191672569,0.0149130675384926,-0.680832049318465,-0.174364889074187,-0.221229146058249
345,1184,0.205232832968305,0.0361326064511302,0.935626938244535,0.11025750739111,0.089989036193215,0.010020031796716,-0.75803848379466,-0.24169160100252,-0.293654449247025
346,1185,0.206775607378628,0.0368623084407925,0.935511378928947,0.113258937939756,0.0823413197753854,0.0060919807725193,-0.780043960338197,-0.225978116250858,-0.23963635153541
347,1186,0.208356869201662,0.0374551457890585,0.935400529538355,0.115456240083892,0.0760320163475418,0.0029383934565012,-0.782813278885807,-0.161195771574696,-0.232238089263239
348,1187,0.209992316096698,0.0379817820179003,0.935282653171735,0.117894774732725,0.0704591495465877,0.000277217040967609,-0.873816043240021,-0.151637024631241,-0.183142889785298
349,1188,0.211629021658341,0.0384752753027801,0.935166048519262,0.119096586005983,0.0656744337923835,-0.00100160700399521,-0.869654258538023,-0.18950593214155,-0.095691290230674
350,1189,0.213237531214985,0.0389707126569492,0.935050255234798,0.120860060458762,0.0625596834892355,-0.00254463082286989,-0.850870066645627,-0.210714803882176,-0.0763830045004912
351,1190,0.214817379082657,0.039467534332536,0.934928275862285,0.123299142933094,0.0597616658845616,-0.00405304063324546,-0.840102018768434,-0.226067989759335,-0.0465177942052915
352,1191,0.216343833196887,0.0399429391099342,0.934804301835786,0.125228767599247,0.0554094250676317,-0.00453668987007268,-0.74600540846479,-0.169180365296465,0.000971650308855765
353,1192,0.217812285785593,0.0403969173198746,0.93467400098139,0.127390359193796,0.051706196964793,-0.00521074699870039,-0.642960309957344,-0.173607304544816,0.015057394486717
354,1193,0.219213983619259,0.0408210750356271,0.934545523888818,0.12794433234813,0.0473099742858637,-0.00408101457433888,-0.502054019528411,-0.101428463138049,0.114099874376593
355,1194,0.220551396185479,0.0412280325846631,0.934422148024893,0.127374187400186,0.0442835626602469,-0.00269762919475148,-0.415527129134341,-0.124845759097731,0.148839072301525
356,1195,0.221849314234158,0.0416429165102923,0.934298343696933,0.127326450026252,0.0433960783790926,-0.00148560608621517,-0.339580303845444,-0.153129466982665,0.186979743452446
357,1196,0.223109306416399,0.0420875272612199,0.934177599657105,0.125644483133862,0.0440866308419083,0.000744400552610833,-0.324127731182258,-0.156438247607913,0.261159954304068
358,1197,0.224299975482988,0.0426045711755376,0.934064125205675,0.121564899331327,0.0470030251721017,0.00376660885826276,-0.318498537035113,-0.125788081229445,0.31244556221383
359,1198,0.225412694614539,0.0432280001499263,0.933948403972414,0.117364972829135,0.0514395095444244,0.00606819516219554,-0.324473158322106,-0.100947249960819,0.301039248483967
360,1199,0.226469556444799,0.0439777030090206,0.933814094965349,0.113853535932409,0.0583901864025218,0.00691515896202923,-0.357725205660969,-0.129380568866603,0.283997712684051
361,1200,0.227458655830335,0.044812078933021,0.933666341161229,0.10857835956753,0.0633424761025986,0.00858414103413497,-0.359631484118341,-0.109216068693253,0.324904151195271
362,1201,0.228390314076151,0.0457048514198897,0.933504151575618,0.103432982607264,0.0684336670654507,0.0089816788724947,-0.431557267854479,-0.0331114318227211,0.279594883436322
363,1202,0.22926818777943,0.0466403004326844,0.933339853462423,0.0983748805497609,0.0725261551862825,0.00971901300968866,-0.35300034526224,0.00616009342414595,0.285973574396261
364,1203,0.230107746621976,0.0475927965251105,0.933243060488455,0.0931935637337508,0.0751765888371474,0.010521258176975,-0.262667406132324,0.0318875323816157,0.227478464203011
365,1204,0.230924477807181,0.0485613279728281,0.933191537789336,0.0885561434500228,0.0770591901209399,0.0109271349139342,-0.223904377672326,0.0218491830619883,0.163490270085265
366,1205,0.231703787544175,0.0495244125172639,0.933177586607561,0.0828802141130885,0.0774521716515208,0.011781182962278,-0.227829597260974,0.00768119803400766,0.130389096481038
367,1206,0.232483779214153,0.0505167028998532,0.933174798890574,0.0783647081467799,0.0786252175304814,0.0117621319930229,-0.194784454125393,-0.0948843792409101,0.0874053989915448
368,1207,0.233206108674829,0.0514212773111636,0.933198387097736,0.0741264342631742,0.077388011953589,0.0110634135243551,-0.23751028342481,-0.0539602453827381,0.000901197434224921
369,1208,0.233852045147636,0.0522930882158738,0.933231335950137,0.0684764594224648,0.0775255509012435,0.00936787140151414,-0.214377083564313,0.0053226356568003,-0.116247911058225
370,1209,0.234435926763509,0.0531074583490981,0.933265910746473,0.063894008462698,0.0763009406893568,0.00749225710246821,-0.154760661909187,-0.035184241134089,-0.133867711213346
371,1210,0.234971742085146,0.0538250747149431,0.933302711318817,0.059202849895323,0.0736112184655605,0.00590454845587636,-0.137936600760347,-0.0474160869863974,-0.144580700308461
372,1211,0.235482488612764,0.0544157961101172,0.933340792544727,0.0558520033172856,0.0698257125376498,0.00515312272970699,-0.102351141799215,0.0234061509748907,-0.070990929739389
373,1212,0.235969102845673,0.054898677970937,0.93338292893912,0.0538702760096593,0.0662482987120218,0.0046096110214257,-0.00941777165627095,0.0509182026100001,-0.0378381125510617
374,1213,0.236174298410105,0.0560018714456866,0.933476272716264,0.0526309677542246,0.109517733673602,0.00201284880836785,0.0256014386106001,4.18443992825398,-0.13164923546675
375,1214,0.235915531936366,0.0578690786840286,0.933611766073784,0.040694822755102,0.114914336390645,0.00118919131237682,-0.0836064476550991,-0.25160829869049,-0.154515930118655
376,1215,0.235652987949746,0.0594612352876327,0.933779722073962,0.0270146259192637,0.0955480690129394,0.0107383987503349,0.336942591567128,-2.55015497587418,0.637093293821307
377,1216,0.23562368078999,0.0605517221768078,0.933960243589622,0.0191840972380375,0.0883710203063884,0.0102533239757598,-0.144144519039133,-0.806296579194519,-0.0759276740812441
378,1217,0.235784967428187,0.0612488054580299,0.934110628879144,0.0220033150468606,0.0789604253458049,0.0119773421348752,0.431727103461483,-0.729733975876919,0.119436758618292
379,1218,0.236306440209086,0.0614272912513951,0.934253564360522,0.0340812257092527,0.067354083033055,0.0167205041438096,0.98242380952191,-0.435777505838528,0.373162010853046
380,1219,0.237340360002123,0.0610243101844322,0.934391397713867,0.0554805290165678,0.050019562934049,0.0203501564511678,1.24517224206748,-0.229068061900297,0.345948482524064
381,1220,0.238772332331301,0.060224755250383,0.934512099996879,0.0702564532027806,0.0364569256491398,0.0211492291017696,0.307650412973205,0.688156548426046,0.143892563136035
382,1221,0.2401979867413,0.0594848473696405,0.934602519789901,0.0763744632322521,0.0257901567325962,0.0156215299999817,-0.694629250174179,1.21082849655122,-0.290809436277893
383,1222,0.241406402690825,0.0590226695569046,0.93468208099148,0.081182212916557,0.0158838239917967,0.0145495631328472,-0.154401716359756,0.528320215282977,-0.00452682050920775
384,1223,0.242474857235142,0.0587626894453256,0.934770498192452,0.0856087579686456,0.00791029724509787,0.0136391046841734,0.0246055493215304,0.264723402703552,-0.000565049133445759
385,1224,0.243430985135634,0.0586681495228088,0.934867448740005,0.0881659505220035,0.00358317776242745,0.0127581605246202,0.176463792311283,0.0803467858391776,-0.0286424972689343
386,1225,0.244346655065054,0.0586867182693151,0.934958099740881,0.0899753555085567,0.000199940013578078,0.0119886774655368,0.255870044396415,0.00504256646671328,-0.0461739365918776
387,1226,0.245197328689567,0.0587304636891714,0.935063608051152,0.0897120470015604,4.16034737466894e-05,0.0114719500030543,0.238364703443664,-0.0148039273552496,-0.0352517037303076
388,1227,0.246001910568633,0.0588083372563869,0.935176644373072,0.088396497168326,0.000577655099044232,0.0118653822688909,0.228830989457591,-0.0122805475857909,0.0204820726586677
389,1228,0.246765878692601,0.0589115105752541,0.935298635953187,0.087184628319597,0.00167156941642706,0.0129917375441664,0.243609034692562,-0.0452999801348335,0.105050623428708
390,1229,0.247502113091014,0.0590527382573487,0.935424240342688,0.0865880868492456,0.00378739655899452,0.013459905471805,0.245027329837945,-0.0959723099307987,0.0997257184457723
391,1230,0.248208615870022,0.0592466883105418,0.935548927436121,0.0861890727919813,0.00724738979099129,0.0135100023491239,0.220483395180423,-0.107511998391587,0.101439119545341
392,1231,0.248883545333086,0.0595050896844816,0.935670503156088,0.0851506634755199,0.0112396228924412,0.0135880296866661,0.182850844234381,-0.103703353583801,0.113521410043172
393,1232,0.249524494072062,0.0598422091512526,0.935788485494597,0.0845026893286825,0.0162364726565138,0.0138430203218157,0.256082711187892,-0.152889236905046,0.135078710217989
394,1233,0.250166525178787,0.0602438601349964,0.935897309477688,0.085450087788402,0.0204797633620501,0.0136468026706578,0.275643275228815,-0.165757843983625,0.137877527723422
395,1234,0.250848244676678,0.0606963198104845,0.935993190131518,0.0882657930924039,0.0248738557659685,0.0136607805169977,0.312969559180421,-0.212474066421581,0.188956814563619
396,1235,0.251587269316777,0.0611880418460896,0.936070487345346,0.0914936699597899,0.0305798610108808,0.0131898624699497,0.235292491801691,-0.142507997415047,0.192998815736599
397,1236,0.252352349837479,0.0617096682359912,0.936133990144757,0.0933617448561447,0.0348030157268687,0.0135769749544078,0.24905420026448,-0.0767726448487643,0.216980259880705
398,1237,0.253122630714562,0.062232623598069,0.936197894224342,0.0937004134543202,0.0357970955109574,0.0161884719013734,0.39854028090966,-0.0494024725126021,0.30707661096723
399,1238,0.253926379621046,0.0627345012796327,0.936270985628281,0.09545943672551,0.0349975496517438,0.0195153553618695,0.530661825022594,-0.0537800263669889,0.374278123042355
400,1239,0.254816199187023,0.0631777144059525,0.936351056945941,0.10005655878555,0.0312848334113557,0.022781957198754,0.489986802983378,-0.0915720273689821,0.438316125474081
401,1240,0.2558062679723,0.0635763093769722,0.936428317581393,0.105645454208322,0.0293288878093428,0.0244045152267175,0.366137436590956,-0.107540599594729,0.38930458246269
402,1241,0.256846165111716,0.0639497616293986,0.936493488079264,0.109076196905817,0.0294377125111625,0.0245735096812238,0.148775616694973,0.0322991969652222,0.288816667110397
403,1242,0.257861010266113,0.0643663294614385,0.936533958786753,0.11025544913378,0.0325646879176997,0.022385161725756,0.0725980810095039,0.084579036108572,0.113242746269351
404,1243,0.258817392864769,0.0648561554564626,0.936547570628442,0.109017587874173,0.0369591842866524,0.0195510073889136,0.130731722123763,-0.00989685921391337,0.0192905530813237
405,1244,0.259730412600595,0.0654061446180627,0.93654274044816,0.106114635003806,0.0414235939349179,0.017037448756637,0.178729828586687,0.00610910939867045,-0.0146104630733353
406,1245,0.26067187590691,0.0660579095626971,0.936514737112217,0.104991260777346,0.0473289739979053,0.0150922276850764,0.306300701812639,0.0207200952144749,0.0338327331575761
407,1246,0.261680891071067,0.0667591245291716,0.936479035214124,0.10668152733715,0.0562259454661784,0.0136928067033075,0.222154254069656,0.139216353851778,0.142963402264094
408,1247,0.26274817225112,0.0675737151030508,0.936456129111978,0.110105432815623,0.0654232364461089,0.0129515076675933,0.19602134652567,0.206796148269158,0.20714096460392
409,1248,0.26388278449378,0.0685022359199573,0.936430025426919,0.114114552824507,0.0754913171531652,0.0122152585390916,0.121881278710952,0.278555862918501,0.245840701118447
410,1249,0.265065395995166,0.0695265232565714,0.936408950993157,0.118671531652653,0.0835701538321633,0.0120549239447239,0.115359578580306,0.373738703609095,0.261482042401991
411,1250,0.266308408835209,0.0706297037900209,0.936392387269147,0.123776902833158,0.0904613393026611,0.0116622708620068,0.166602897734061,0.323477018603518,0.223327340731335
412,1251,0.267647605407301,0.0717708273078791,0.936368603173861,0.129865230016535,0.0958482664284934,0.00982208247392351,0.0653806555311753,0.279246321998618,0.129345696443778
413,1252,0.269059662996668,0.0729239269245903,0.936335990286101,0.134816875843203,0.100082570630064,0.00747657414221625,0.121586375028458,0.216151159865831,-0.00415209170103625
414,1253,0.27051943721416,0.0740794024415557,0.936292138394543,0.138244948512339,0.103015727759539,0.00505056818858071,0.158728812915539,0.193817503947422,-0.0963116129710904
415,1254,0.272006264714896,0.0752240516538204,0.936239720470535,0.139480324872268,0.103961842989596,0.00340722698367691,0.159452954480013,0.135825727199082,-0.126158552857597
416,1255,0.273511270506529,0.0763814655172139,0.936170723493189,0.140233947664855,0.1052522113828,0.000528946170555355,0.107095429247979,-0.00521781844509843,-0.221886294133766
417,1256,0.275036413889053,0.0775654549468188,0.936075584179895,0.141720721165552,0.106017425111859,-0.00349377372477351,0.0678679128326864,-0.16131420832851,-0.298548645418083
418,1257,0.276577764256642,0.0787664453624072,0.935958193035123,0.142946527926927,0.106512055467428,-0.00702359312065209,0.134992083131806,-0.255917984412697,-0.317822776488624
419,1258,0.278144982859346,0.0799796643236462,0.935819238841926,0.144870416743858,0.106894302749053,-0.0107315053139758,0.136944264964446,-0.291437121316387,-0.333937067781444
420,1259,0.279715254696162,0.0812187422986553,0.935669836901,0.146247613369515,0.107434083635264,-0.0134772452119874,0.182224408924903,-0.318755116266467,-0.30183825151573
421,1260,0.28127989904976,0.082485221993384,0.935521175584301,0.14792493541605,0.107677636060433,-0.0153757660378613,0.214144035292935,-0.296060859647155,-0.235571096076671
422,1261,0.282837376234273,0.0837727313844547,0.935379624828253,0.149240506842839,0.108610747968582,-0.0168271556500814,0.150183815227174,-0.173981561326686,-0.186677141215288
423,1262,0.284389316956171,0.0850860297200102,0.93524571996541,0.14983096737936,0.110876059947563,-0.0181786042617357,0.12094284653532,-0.168954310702231,-0.182980659279909
424,1263,0.285935267051296,0.0864398801179274,0.935109974883537,0.150053943541448,0.11485839677514,-0.0198718773586975,0.0592695197919943,-0.0901798121577705,-0.198853918303241
425,1264,0.287464563635753,0.0878245579837205,0.934963873042344,0.150148595432538,0.118079879577737,-0.022511686762096,0.00964912316655373,-0.0582953971713654,-0.267321222235548
426,1265,0.288956272974616,0.0892517546033019,0.934793254139663,0.147213335129992,0.12155561029854,-0.0248603889629573,0.0130949435180759,-0.0206277269463737,-0.312563329909628
427,1266,0.290355221549037,0.0906750557317245,0.934605250478577,0.142794001349446,0.124684795470598,-0.0277654378040228,-0.0122778759606901,-0.0787357787398025,-0.362346660361337
428,1267,0.291675961374692,0.0921199470457951,0.934376111814837,0.136733486961741,0.128572933171914,-0.0314631923837842,-0.0359779600505299,-0.0502842113899125,-0.428120226549794
429,1268,0.292906723310988,0.0935580084888524,0.934127112565187,0.129958456575173,0.131841545171283,-0.0348769566958576,-0.0360476898855515,-0.0438233177781317,-0.456028642963501
430,1269,0.294029893584775,0.0949224187731489,0.933886820917818,0.122637302084349,0.133080071737237,-0.038156190796012,-0.103599539578155,-0.0623093165389264,-0.456888451867422
431,1270,0.294993536771118,0.0960405993395704,0.933711599323131,0.112652678912419,0.129913490303917,-0.0389588960478324,-0.0523858013047228,-0.0543285763444496,-0.40828435847654
432,1271,0.295855649484392,0.0968053856673353,0.933625742908259,0.103693323830288,0.121707675477831,-0.0385251962363485,-0.0489616030058123,0.00800818896549131,-0.371470147330897
433,1272,0.296704695426119,0.0973259776361335,0.933624506514952,0.0965036814867467,0.111616189733486,-0.0367685443426428,-0.0852840189334734,0.0743272768269205,-0.304266114706793
434,1273,0.297587718055036,0.0977626920091218,0.933689577710381,0.0907055882246782,0.101558243515656,-0.0342927948065747,-0.192296925493668,0.184250558196148,-0.257996608828352
435,1274,0.298539895998685,0.0982383045197561,0.933788344056056,0.088593907698272,0.0933730039921032,-0.0317525577898461,-0.211686950861922,0.202644003791812,-0.205302470172876
436,1275,0.299579697842958,0.0987940150682039,0.933910286953665,0.0888596692377401,0.0866073236643663,-0.0281562342554203,-0.239371256702503,0.214222812818553,-0.0911510767284006
437,1276,0.300715133786029,0.099425279677499,0.934054709165125,0.0908214837492496,0.0809059965187412,-0.0236307138030242,-0.251471622939655,0.243147865898824,0.00427294163037798
438,1277,0.301942255291075,0.100134863036197,0.934213976575654,0.0934517019142584,0.0776968552408386,-0.019388379821341,-0.29606611874508,0.222008151875306,0.0274272803213064
439,1278,0.303240258371972,0.100889652813182,0.934383846076901,0.096157469927179,0.0746359142515793,-0.0149833616413041,-0.289290680332903,0.224707944889009,0.0601959328728199
440,1279,0.304589678826572,0.101684602170353,0.934561926022638,0.09811450467643,0.0741648396355428,-0.0106845821842426,-0.293557070812263,0.212838814570471,0.0867969024932741
441,1280,0.305992317957616,0.102497682896291,0.934736763110881,0.101983094002078,0.0738649616792019,-0.00762414150068004,-0.264918114877769,0.212739001359457,0.0684065674937853
442,1281,0.307427217051542,0.103335883996239,0.934902517155746,0.105787392575408,0.0749325879799977,-0.00476571777969952,-0.226262745274676,0.176527310599213,0.0747532279932876
443,1282,0.308876514150204,0.104200459085816,0.935057718316722,0.108925789239986,0.0776503999073984,-0.00222739996135406,-0.188343206847848,0.205823788322602,0.0648505891772504
444,1283,0.310334631047802,0.105109319683858,0.935194590900005,0.112082187955232,0.0818034013813215,-0.000642333247446997,-0.178397430763775,0.22848715121958,0.0345325573075265
445,1284,0.311780661293131,0.106070204249757,0.93530788072489,0.113904280357528,0.0868614276531913,8.67528907633496e-05,-0.258824796981648,0.170515653059901,-0.00159717526300367
446,1285,0.313185186659645,0.10708168308127,0.935398454848858,0.114026747510556,0.0906630866236241,0.000841736349618841,-0.260460622991106,0.137236671849987,-0.0167851591393359
447,1286,0.314597160178331,0.108184750740323,0.935447791182452,0.113726313795083,0.0948030453975044,0.000899719529467613,-0.289349936891862,0.0954722016643686,-0.0404100127317428
448,1287,0.315932631889045,0.10931021472693,0.935487534189256,0.113033523230761,0.0977373270970813,0.00092979444186357,-0.28711767306533,0.0826280538510587,-0.0335744489984955
449,1288,0.317231635635555,0.110488039887837,0.935510447235158,0.112342904206439,0.100809083979929,0.000653229480152695,-0.272245857210307,0.118411095168419,-0.0454957238319976
450,1289,0.318482885258042,0.111743337049641,0.935518035584831,0.111611447445872,0.103641368191482,-8.26055496655563e-05,-0.166507905645894,0.0250485175069258,-0.0898185811678454
451,1290,0.319688501939788,0.113049221387032,0.935513793035963,0.110226146321169,0.106385848728316,-0.00105032383476583,-0.159136589396519,0.0606690317095844,-0.127825334464538
452,1291,0.320839158694144,0.114388096807849,0.935503072661906,0.108679566859935,0.108945507395887,-0.00176564711932938,-0.111043963067884,0.112203884956464,-0.123202312740367
453,1292,0.321940635092173,0.115735632700081,0.935491360889072,0.106629886890368,0.111786674137051,-0.00279386215337247,-0.0524468948336165,0.135174297088143,-0.179215344803046
454,1293,0.322985692576306,0.117080169589902,0.935480876778551,0.102877145317235,0.1149338901283,-0.00367276403560306,-0.0774121128805321,0.132210150341074,-0.204945651989561
455,1294,0.323988701618655,0.118413820210238,0.93546156665249,0.100152449405068,0.118517725893046,-0.0061824530217769,-0.107400220178937,0.11532290633588,-0.292845880757205
456,1295,0.324933686309547,0.119737619635232,0.935434674734865,0.0961473765008117,0.122025008164842,-0.00856611376037851,-0.0717627478690206,0.170217366116715,-0.350890558863801
457,1296,0.325817472489306,0.121049976850508,0.935395858863818,0.0922719079807354,0.12475946502968,-0.0115063727714205,-0.0951174122724987,0.118675930504519,-0.39674132772777
458,1297,0.32663970643308,0.122344639698291,0.935347319272935,0.0877698495619541,0.126796958870666,-0.0143785525170392,-0.0595961741502893,0.0779853006870632,-0.426632633241377
459,1298,0.327411096289285,0.123627930030567,0.935287487583776,0.0832568339738839,0.128433831530738,-0.0176974359071712,-0.0384575334342545,0.034064989437946,-0.487029731901252
460,1299,0.328149156996759,0.124884484747999,0.935219257809887,0.0794622462446588,0.128816894543025,-0.0205453514674966,0.00308814377976443,0.0583996533761294,-0.47936104766528
461,1300,0.328878122444034,0.126104672943941,0.935150316304422,0.0757184543984892,0.129178346003773,-0.0224798390218496,0.0131245872970469,0.0831654192220198,-0.435390448747698
462,1301,0.329598871451173,0.127284920239218,0.93508713278707,0.0729165799987125,0.128376303980553,-0.023271548351339,-0.0398090696208499,0.15875789286494,-0.328447836967147
463,1302,0.330289561238019,0.128456820369187,0.935033405386832,0.0705827863059363,0.128213864101993,-0.0241693996937626,-0.009781769146644,0.116921066275815,-0.326634254436458
464,1303,0.330960710303184,0.129602803023132,0.934994468610148,0.0679274324157125,0.125646899188418,-0.0238715271829666,0.0139635212125327,0.0998368910044028,-0.259731426397829
465,1304,0.33162132751448,0.130742605439966,0.934971935867182,0.0649388361854865,0.125132407299706,-0.0229396233927348,0.0180401739015844,0.0759781036636256,-0.203091742731575
466,1305,0.332317891246045,0.131902106831735,0.93495644407978,0.0618582561961251,0.124806342876861,-0.0211462124453371,-0.0366500915988004,0.141678133744591,-0.129988078608481
467,1306,0.332972774943551,0.133092860237868,0.934959344073429,0.0605830821579008,0.126233005637638,-0.0204075452769158,-0.0449939036575007,0.0728090450148857,-0.140390419680882
468,1307,0.333640787436494,0.134314532971241,0.9349716482296,0.0597764610607762,0.127672214140719,-0.0189892188202307,0.0776820893803622,0.0381172218320336,-0.113673272791161
469,1308,0.334333616815501,0.13555342801209,0.934991706742098,0.0576757773906742,0.129782157630662,-0.0166281042363348,0.017603223438456,0.121894197528791,-0.0524049575992749
470,1309,0.33503200688963,0.136822702931209,0.935013353376895,0.0554339736352039,0.132340481019517,-0.016545794276663,-0.117000784599014,0.163912731576529,-0.201019978827085
471,1310,0.335714032613593,0.138098042592962,0.93501416883163,0.0536345005946889,0.133240529540048,-0.0174874238017726,-0.173540873530136,0.181324930171272,-0.257937728819603
472,1311,0.336394485379938,0.139354601504631,0.934991160100198,0.0519314566993676,0.133418319150568,-0.0196030332217278,-0.266714506384134,0.114463150938144,-0.345289414291677
473,1312,0.337078329527683,0.140547307244854,0.934941468544785,0.0516959920761381,0.13081158425693,-0.0220310940249721,-0.178448500560168,0.0888943364833457,-0.389072823593701
474,1313,0.337793685152622,0.141655164975517,0.93486936011072,0.051843321604045,0.126992170180997,-0.0237490844756591,-0.206095353844064,0.0232041577314839,-0.341207238901508
475,1314,0.338532871619693,0.142656020474723,0.934781065308627,0.0528353470919027,0.121103241929634,-0.0248400408896183,-0.267857823856086,-0.00493518439664465,-0.269137752452238
476,1315,0.339257491058586,0.143576837391604,0.934684156901404,0.0541186710514142,0.114590208941965,-0.0252793309968351,-0.22301344482975,-0.0531376784827884,-0.221536880000669
477,1316,0.339965778086614,0.144424535893052,0.934583151431168,0.0553411163503986,0.108043285680293,-0.0244694173345332,-0.210178507962486,-0.115050482712852,-0.0908013012921924
478,1317,0.340642927775447,0.145227773023561,0.934484532655515,0.0559473533292085,0.102631730597097,-0.0230093900750776,-0.227337871660778,-0.0105387485114558,-0.0154895777372665
479,1318,0.341278345875475,0.146047099060057,0.93438295518861,0.0572039909199335,0.0989306558854942,-0.0223769527572973,-0.195317332025212,0.0211771633358282,-0.00733801342887168
480,1319,0.341891091584925,0.146900804255274,0.934278114103558,0.0583484732904481,0.0974672676583992,-0.0214311346683754,-0.146002343838162,0.017246762745671,0.0505296550780161
481,1320,0.342506559481155,0.147767141543545,0.934171710241613,0.0599516370152475,0.0962324404656602,-0.0198979641147001,-0.140334999658317,0.127736737392992,0.130854490949434
482,1321,0.343124318322818,0.148646506356366,0.934071422754784,0.0612454300992629,0.0964095973605775,-0.0170047258725145,-0.0782831165129629,0.179286686284342,0.249489312739694
483,1322,0.343741475918461,0.149525712749632,0.933986535265909,0.0623044740376574,0.0958704543275346,-0.0127083497837472,0.0142549614291628,0.20822423890414,0.361880261754815
484,1323,0.344384662532558,0.150381777916739,0.933925603614779,0.0642838622629965,0.0957048530320345,-0.00676602331332139,0.0868802105774489,0.284699173211055,0.539776110566673
485,1324,0.345065000670354,0.151257098196278,0.933894973528073,0.0669640468020833,0.0979995357758248,0.000216419983160685,0.0526220059679724,0.31193794661143,0.738954819742692
486,1325,0.345777600994991,0.152178126950649,0.933899337747074,0.0710730346536684,0.101104784752299,0.00837179297404916,0.149494721177254,0.396358144046945,0.911005395276636
487,1326,0.346604828865362,0.153141508196162,0.933921131580443,0.0779898111089592,0.103742173937851,0.0161909880578062,0.213597370338767,0.369244962864846,0.97645720502419
488,1327,0.347459555628263,0.154112368326625,0.933979133902208,0.0844626962735499,0.105636518110718,0.0240229726414126,0.306156374569501,0.291959647940798,0.983300325157063
489,1328,0.348141615708715,0.155263611952885,0.934633721638355,0.0843650428752535,0.112343648703039,0.0325975414295104,0.260381528610697,0.23261749910039,0.814328075398634
490,1329,0.349450011260253,0.15597238379003,0.935304691203505,0.0912041052215469,0.112146736296596,0.0399423207651625,0.192503515093155,0.287276049403011,0.71109271496824
491,1330,0.350008834870238,0.157518516363652,0.93584797118685,0.0898185842569814,0.120896547264912,0.0444878541840915,0.222949760945238,0.312345278391816,0.562498579994056
492,1331,0.350931867645766,0.158855229573209,0.936320388903831,0.0922876336755983,0.128137601369565,0.0463968424616513,0.208058533225538,0.289706939386699,0.419034667839507
493,1332,0.351744874762414,0.160393802379399,0.936737585992552,0.0943839645926719,0.136876517571452,0.0462379158005464,0.303912769545226,0.23375646352552,0.265860159994028
494,1333,0.352692890489066,0.161905938271163,0.937100641360554,0.0993668915577803,0.143784627674915,0.0441204322301936,0.315246323274028,0.194910655536414,0.130922559400722
495,1334,0.353649460073398,0.163464190259147,0.9374236419528,0.103316736137702,0.149933149552557,0.042917402584288,0.417037405059424,0.196309656383729,0.158750515047837
496,1335,0.35465797753722,0.165001395945709,0.937713515199952,0.10747009774846,0.154922355816367,0.041124550094688,0.336260174321475,0.253636989691622,0.14876586288879
497,1336,0.355620231025932,0.166563322302201,0.937944012611725,0.110224763293211,0.160269360159989,0.0378696843042458,0.237111934716001,0.288550666149595,0.046992088424958
498,1337,0.356569305798033,0.168165155524207,0.938175865942983,0.112217109170028,0.163788098292106,0.0352834967903728,0.298041587300413,0.314081577972785,0.153215845584419
499,1338,0.357509160459351,0.16978388416493,0.938362615933707,0.1127785089586,0.167314624203945,0.0327634062975825,0.223987432743784,0.310764946528912,0.118739547742297
500,1339,0.358497540250821,0.171476190702775,0.938571124655183,0.113932534808965,0.17008540598195,0.0303138815090124,0.221170278760841,0.313274130843786,0.195954221086616
501,1340,0.359556476793779,0.173236470985753,0.938767009765139,0.115162292349067,0.173774987375899,0.0280018831479028,0.0797373194023784,0.302684156261681,0.249323877111868
502,1341,0.360675570908718,0.175097220248269,0.938957387523918,0.116349417652328,0.179081383730863,0.0255705520447657,-0.00237469949507195,0.299531421130975,0.184173759427531
503,1342,0.361860154352535,0.177066209684163,0.93913995255768,0.118560279606891,0.185139051599641,0.0234684067206928,-0.0609137992288846,0.244465636967895,0.200133769521743
504,1343,0.363083691622496,0.179135407736409,0.939324871403484,0.120271591814508,0.192019517355944,0.0223606312902169,-0.141855177652128,0.204657209780996,0.233055168254239
505,1344,0.364326637805575,0.18129193959524,0.939512863967542,0.121861314018848,0.198781785053847,0.0222901449131248,-0.129790572192772,0.264061711576996,0.262939234410298
506,1345,0.365631694872724,0.183524161242798,0.939683553387548,0.124495010202901,0.205782391629488,0.022846255120245,-0.00378392791450296,0.161077409343372,0.319858440704408
507,1346,0.36690196863928,0.185824566507679,0.939844161506226,0.127889988724057,0.212156360200141,0.0218354186947635,-0.0441831198640966,0.119829028106026,0.228361161791224
508,1347,0.368166148842036,0.188158583401115,0.939977239956512,0.131129142263071,0.218356021749217,0.0207205044616742,-0.0212119546635368,0.172526336171367,0.220566295589697
509,1348,0.369422754856242,0.190513232506541,0.940079006601594,0.13385548206063,0.223552598697932,0.0192767955372071,0.019841991257014,0.193372987517489,0.209260282811527
510,1349,0.370663501030474,0.192874017008503,0.940403168729448,0.134834838341847,0.22698256651507,0.0211964797551168,0.0715547014654101,0.137402787990783,0.206004716927042
511,1350,0.371906930169016,0.195237260225779,0.94070726103023,0.135415316214424,0.230473788248,0.0225307248888436,0.077853565817414,0.175055925675239,0.167705822744
512,1351,0.373175639013821,0.197612041831232,0.940977404037033,0.136119876713648,0.232606890352597,0.022651534238009,0.0732949336645282,0.15918638421466,0.112308442376953
513,1352,0.374509745638551,0.20001766665856,0.941182434211949,0.138563869989836,0.236996192290127,0.0209379353639966,0.0763824547636907,0.148305300669102,0.0665438467579563
514,1353,0.375931696616576,0.20247757275439,0.94131365666243,0.141641995296531,0.242506253844624,0.0182739015815873,0.0593406882226842,0.258756744329669,0.0272023130822721
515,1354,0.377425014947514,0.205009398133472,0.941382049078717,0.14405526827179,0.248489811929746,0.0159008886731828,0.0828212208884583,0.318347357043784,0.039496889656128
516,1355,0.378977857354659,0.20760953732,0.941403781146143,0.147073909456674,0.25350996580115,0.0136482089781281,0.134840143659228,0.318150026550963,0.0433660373280287
517,1356,0.380560515728881,0.210249806505932,0.941395390796856,0.149653609147539,0.257736006128317,0.0121640441175208,0.160438616422637,0.280834371059674,0.0892520399034055
518,1357,0.382144253908972,0.212880040896028,0.94137499860327,0.151619837685437,0.259590498740029,0.0116760164654146,0.125762063355846,0.33459187730092,0.160340226316577
519,1358,0.383709886919161,0.215471795111525,0.9413546181337,0.153369531678169,0.259699967531605,0.0120873256942192,0.120611739956436,0.311191051026332,0.252353192586464
520,1359,0.385270925554983,0.218003395784022,0.941340629163515,0.155486275770584,0.257456854001247,0.0125353248253012,0.146915043760687,0.219286339553642,0.291585395977045
521,1360,0.386843279637056,0.220479446549235,0.941338618367328,0.158339860579486,0.254730401099476,0.0133170635888049,0.217146900655428,0.218806754886944,0.326608395432746
522,1361,0.388430476257873,0.22290700589389,0.94135949066793,0.160302726258909,0.251687323005663,0.0149856576644689,0.294486530537068,0.194938016099221,0.354725766778935
523,1362,0.390028908257247,0.225310018922906,0.941408566275418,0.161019617054428,0.248758430280547,0.0168396052415303,0.281056386331839,0.19833214046719,0.338542886709207
524,1363,0.391627662808524,0.227716308222293,0.941490147819822,0.160549421474453,0.246803364060561,0.0191184911268931,0.285356636366909,0.138065580419246,0.335289069399939
525,1364,0.393223881621351,0.230150419849184,0.941606683520637,0.158642497706731,0.246912635763555,0.0216036625438692,0.267007777148852,0.0837975537964385,0.313412653917702
526,1365,0.394894308433573,0.232576367649221,0.941742565526865,0.158467296853521,0.248311414574925,0.0238011813341748,0.277653597135924,-0.0140846779799309,0.311679981120331
527,1366,0.396547171323692,0.235090587529389,0.941911442718327,0.158023033151621,0.252156144231455,0.0253928453187993,0.258337031128386,-0.0107934273261931,0.240154742667183
528,1367,0.398229462831057,0.237680725600524,0.942093501237372,0.158556558045535,0.256336146608713,0.02588035195085,0.203248338569958,-0.041834494121528,0.146980143392023
529,1368,0.399904780269745,0.240355151077099,0.942287247832438,0.157740298945135,0.261423315906558,0.0263383537727026,0.224003205495806,0.0154296847465773,0.0658977743045036
530,1369,0.401571467015792,0.243111200372876,0.94247902785134,0.157498311227597,0.265961848964174,0.0249864712244323,0.116450726952439,-0.0552726753842376,-0.0574509913013366
531,1370,0.403205988803295,0.24593247727924,0.942661861056169,0.156943682102452,0.2693123657902,0.0230963242740942,0.0665420426047971,-0.119135591692006,-0.121767193079922
532,1371,0.404793427313287,0.24878824219199,0.94283378260288,0.15590647946295,0.270977964155852,0.0207731153486573,0.0402916900240563,-0.174200830268832,-0.180014709916046
533,1372,0.406323887747295,0.25166622308475,0.94299470615982,0.154099324349608,0.271812751675699,0.0182367188762956,0.0776533587742043,-0.220840437212736,-0.240449009763819
534,1373,0.407823287810285,0.254564731187504,0.943134089760497,0.153727142350788,0.272454830533815,0.014628256363893,0.0216559930657687,-0.269417858750011,-0.271876247199327
535,1374,0.409362924908513,0.257404647479922,0.943252359221548,0.155358281165706,0.270061356442725,0.0105964115379814,-0.0585723148366467,-0.345499375241341,-0.273793892615841
536,1375,0.410936817379848,0.260129474729525,0.943365073243197,0.155365749992984,0.266449878103197,0.0090505712053821,-0.0130826748952172,-0.354796699168136,-0.158875753795573
537,1376,0.412437847623193,0.262919220969644,0.943487684787364,0.154511872286816,0.263019893980398,0.00863999448638576,-0.00156756064178061,-0.344825012569058,-0.0965146732129506
538,1377,0.414011173933885,0.265541190734695,0.943638468613787,0.153336369382882,0.258250357765434,0.0097951039324499,0.00207954022746066,-0.249586188717667,-0.0495732444113174
539,1378,0.41555056738587,0.268185434243971,0.943825730950868,0.151226658748443,0.255054923063597,0.0125138048644899,0.00516012030333101,-0.210515741410527,0.0362963982084336
540,1379,0.417133921354705,0.270765567758775,0.944049632388849,0.149923225782094,0.253005817911388,0.0152933584578668,-0.0885000793757682,-0.173669280475496,0.0642658878264478
541,1380,0.41873986470899,0.273378640553781,0.944291990583751,0.150889819460838,0.252767821804461,0.0161892774739519,-0.216382175479865,-0.157154826245856,-0.0130162888459617
542,1381,0.420385889546339,0.275995045451725,0.944534253748524,0.153521628657067,0.251986502348015,0.0159370446190647,-0.282994774392934,-0.221927431757662,-0.0747774648203025
543,1382,0.42206933079204,0.278590149991917,0.944767662405217,0.157960877745244,0.249516254411284,0.014835859409463,-0.258155597394699,-0.313123344224069,-0.136187823292671
544,1383,0.423808099154094,0.281078894258652,0.945010319106353,0.160586304497918,0.244488986154579,0.016288098318669,-0.196689840007667,-0.334179170161208,-0.0694000125409514
545,1384,0.425656792959782,0.283317926663959,0.945250130350642,0.164146285595202,0.23418591503436,0.0181840002521633,-0.19852025670447,-0.483339321934486,-0.0332569499701796
546,1385,0.427892950065566,0.284724841119882,0.945425381354082,0.173003554630367,0.210829662991204,0.0200660693503927,-0.123353045816661,-0.486540754802767,0.00593565124219804
547,1386,0.43053363497229,0.285081909501959,0.945493963816591,0.188941742223697,0.174106287560812,0.0188357256857806,-0.147564972523201,-0.567138734288597,-0.0322094439382182
548,1387,0.433448376241565,0.284682613649487,0.945434554474732,0.205989083282295,0.131555173204596,0.0161250585897147,-0.21098398917606,-0.584251556871681,-0.0245368243500179
549,1388,0.43641525241946,0.284025690146453,0.945274668412845,0.219657812565773,0.0930305302576613,0.0127201653606989,-0.230940727768918,-0.604467023584457,-0.00582438809771677
550,1389,0.439299359422799,0.283431216309056,0.945048647186293,0.229488120537722,0.0620249126642659,0.00906503226948115,-0.298499072256043,-0.558595429026964,0.0280710868914454
551,1390,0.442045657550962,0.283049834137293,0.944791982812086,0.234367748500085,0.0402646040787835,0.00672139773378007,-0.285017918940039,-0.485209333683535,0.0860861634266139
552,1391,0.444670220678496,0.282925919116199,0.944520766773722,0.237977563395306,0.0261160987452433,0.00407936616504675,-0.28561850947663,-0.4729742931876,0.058319907645738
553,1392,0.447168273430765,0.283074356903934,0.944237263940902,0.238872595748254,0.019883227570597,0.000284081640190457,-0.319705142434085,-0.391312265652088,-0.00962545293529603
554,1393,0.449526082987611,0.283473420910188,0.94395319796643,0.236811721768894,0.0178617780547522,-0.00320216854005734,-0.299954165725591,-0.293427372871436,-0.0882973876483269
555,1394,0.451744946772926,0.284124991496668,0.943674967214876,0.232636489465149,0.0208298893728397,-0.00524657247316481,-0.238132917691626,-0.208304622154513,-0.0336902815289023
556,1395,0.453812474022925,0.285011620831478,0.943430522823707,0.22432449084869,0.0260124941038993,-0.00338877056298783,-0.13422538820355,-0.148423440872095,0.107645475354995
557,1396,0.455734924623604,0.286098219219038,0.943213123524765,0.214975020316209,0.0336082619269816,-0.00386073061200237,-0.135843680834652,-0.0875782457294492,-0.105771957752167
558,1397,0.457509589529466,0.28735965286749,0.942994014400526,0.207151046066896,0.0446476382174129,-0.00573286665218186,0.0109903145708706,-0.0444773929548294,-0.17840616663987
559,1398,0.459136180851137,0.288754365243859,0.942772759988329,0.197942730543754,0.0557715903474949,-0.00776160823129249,0.156821249397875,-0.181986215506979,-0.247764255913022
560,1399,0.460626774877801,0.290207186651008,0.942550316911924,0.188849978182144,0.0641314605219651,-0.00988244972252232,0.311781870800929,-0.362350215397949,-0.305705124407323
561,1400,0.462032594037454,0.291658137449719,0.942320939270077,0.182181252578723,0.0714932392988746,-0.0136388182470952,0.412483453045308,-0.457602865472816,-0.388645319003923
562,1401,0.463380782934506,0.293054533476798,0.942080249342142,0.175968866360888,0.0764989120064527,-0.0189541498414582,0.361414387953347,-0.451151419644905,-0.559810696751804
563,1402,0.464682072815926,0.294352188690462,0.941830093030188,0.168944097157625,0.0787868188378745,-0.0236552826305246,0.315376282753136,-0.371308606855918,-0.577924213925267
564,1403,0.46596224778646,0.295552118895123,0.941573373420697,0.163026929678229,0.0801524864531041,-0.0284091409725541,0.290512186524328,-0.107260313035215,-0.610274174951165
565,1404,0.467253833254526,0.296709534768336,0.941302135246099,0.160029566357321,0.0821676283951918,-0.0338550523557686,0.274339269977243,0.134347498184511,-0.635672476840049
566,1405,0.46859918814836,0.297878911424603,0.941004301516872,0.159645147109876,0.085882862862401,-0.0403600322926678,0.137628489160075,0.203187543564201,-0.628246390114666
567,1406,0.470027562360125,0.299057498406216,0.940666809370599,0.161201546373279,0.0893073129491664,-0.0474366236852399,0.132280203979763,0.204814072840422,-0.657560936333778
568,1407,0.471554834210595,0.300330299585966,0.940304436017003,0.164660729193485,0.0946841759047202,-0.054557871499151,0.120253387076519,0.179370306267276,-0.672022982379516
569,1408,0.473210326236115,0.301651062422335,0.939914986817013,0.169134327269321,0.0986255227732054,-0.0605512806546769,0.139949896772427,0.211796780504348,-0.656952137874969
570,1409,0.474940847545998,0.303000751686114,0.93952089370846,0.171820151011217,0.102235373307606,-0.063756719312381,0.259489119903108,0.275332350710321,-0.60553790158151
571,1410,0.476709259045524,0.304362159501758,0.93913241697448,0.174120697176408,0.10442038285909,-0.0653900600491991,0.227527209394203,0.208954556948045,-0.516165775585074
572,1411,0.478476388072268,0.305704012903129,0.938761686649027,0.17562385481466,0.105802659505455,-0.065847342378703,0.289847130957423,0.0785243577544733,-0.470975524540876
573,1412,0.480202768332258,0.306996023232844,0.938420277387878,0.176127909664231,0.105585946785345,-0.0644517049616976,0.319070864282547,-0.022113964256573,-0.366069489135793
574,1413,0.481868984127717,0.30822060456089,0.938116859252263,0.175635979151651,0.103598352624482,-0.0613269443079415,0.288505216076792,-0.134567981422367,-0.232797379938301
575,1414,0.48349114180513,0.309367884941015,0.937858457929976,0.174874205807038,0.0996665221419182,-0.058036419483293,0.235443703411606,-0.221940812733282,-0.211175002555277
576,1415,0.485101578722071,0.310424281397451,0.937637398902932,0.173143671326308,0.0942961351526419,-0.0535247649595147,0.258146711191857,-0.254716614433269,-0.17091609051831
577,1416,0.486723721752013,0.311402092351371,0.937452701315403,0.170592909473462,0.0885067591588307,-0.0483047731042377,0.203548384184389,-0.197694075063833,-0.132343703443238
578,1417,0.488358325687498,0.312313063076862,0.937299825448008,0.168015210623246,0.083060414730754,-0.0435953986335193,0.176699516138507,-0.235788754739351,-0.134878201565849
579,1418,0.48998505310268,0.313178583703806,0.937170403715143,0.16410208731199,0.0768689423901163,-0.0396305592365355,0.153272008016372,-0.243470717456636,-0.188250927325336
580,1419,0.491617932027558,0.314039207497005,0.93704337948156,0.161665863608834,0.0737551610600989,-0.0384720242462109,0.182165214267656,-0.15250551508031,-0.360792882943027
581,1420,0.493239881733549,0.314936062627051,0.936911274158538,0.157400522737049,0.0720834451798096,-0.0369341850762584,0.148693821163793,-0.133016601905488,-0.320892831320596
582,1421,0.494822692863283,0.315873333032419,0.936772413525526,0.152431918698071,0.070050937444511,-0.0362248388782204,0.252250503427471,-0.267150536539135,-0.33870613300425
583,1422,0.496365726253204,0.316857931793909,0.936620824653346,0.148582996278928,0.0706448926094938,-0.0348168140599874,0.239531295137233,-0.108200299307026,-0.219106134091183
584,1423,0.497895595381206,0.317919691787809,0.936439326818071,0.146724078124522,0.0735725434190027,-0.0358728761418058,0.0875989269743216,-0.0777355921557637,-0.152124006572977
585,1424,0.499345839845597,0.319069066698001,0.936239309199987,0.143486449478178,0.0755146908739245,-0.0346017496892229,0.136944970875523,-0.375486655907676,0.00412356258835737
586,1425,0.500744378517159,0.320289734116914,0.936034309026847,0.144049734317009,0.0795883636056317,-0.031483621452356,0.195585446639711,-0.371537839038006,0.191295708744264
587,1426,0.502102495472296,0.321549087186032,0.935824591184869,0.14431277466804,0.0848626886144614,-0.0288613935648,-0.00850314828045816,-0.533913863411256,0.215296171994101
588,1427,0.503381782773424,0.322872514577913,0.93562477968747,0.143963177357357,0.0894045651976409,-0.0243507137483284,0.0689657584516783,-0.619531376692998,0.31249838535134
589,1428,0.504621858833807,0.324189051662405,0.93543874479403,0.142072785825126,0.0936263963611876,-0.018114716211316,0.0474474017383283,-0.573576377107807,0.462213944154232
590,1429,0.505845842310317,0.325470955225186,0.935251099575522,0.140211168131697,0.0990208804402407,-0.0154952601099301,-0.134811300621539,-0.440065400723673,0.344015480187057
591,1430,0.50703961435272,0.326693264114309,0.935051131333638,0.136883225251309,0.103644413776268,-0.0124425091141757,0.0254078747630621,-0.211033199030514,0.408348008209626
592,1431,0.508234136497251,0.327899191834438,0.934832814283616,0.133189802336878,0.11139089905683,-0.01089937637632,0.0338446095198658,-0.0159290460335773,0.422105272523536
593,1432,0.509419580777686,0.329167917424459,0.935095717175236,0.129504789276967,0.117861254571046,-0.00415057828419993,-0.0578859431312815,-0.17912465292126,0.375312981580179
594,1433,0.510092707780942,0.331171614196198,0.93517106459325,0.119566893698968,0.131596116433926,0.000568366881141843,0.00236065860337904,-0.00188783081045679,0.255972080514043
595,1434,0.511237298741072,0.332823511769863,0.935283878941438,0.115887005110019,0.139212524276606,0.00308955760646183,-0.118246262864168,-0.412412133435171,0.127731666082063
596,1435,0.512296345397116,0.334482287630219,0.935448064534187,0.110335103175247,0.141775623100375,0.00917924778654529,-0.0487646959091497,-0.553459432326019,0.278500219464733
597,1436,0.513583422482954,0.335807238854534,0.935650575573234,0.111768549765365,0.138611758181428,0.0138947804412641,-0.0827964904477777,-0.591797089223146,0.25376206727785
598,1437,0.515014280659555,0.336924500580703,0.935863323366034,0.11883236154992,0.130375618735436,0.016357984386338,-0.197377744396283,-0.54875755779255,0.154485783516448
599,1438,0.516630363337616,0.337821182826965,0.936058088300823,0.129984936785291,0.119639083825602,0.0172443988658729,-0.208499261706097,-0.535914837716943,0.0941874319072581
600,1439,0.518377940043738,0.338578401988898,0.936219507999833,0.140782720106221,0.107769571802043,0.0181744295986794,-0.157534239372891,-0.560195457398322,0.114917979631149
601,1440,0.520264588376534,0.339209301388695,0.936338130633474,0.151385111217713,0.0963690732731193,0.0190117058296731,-0.212803692611186,-0.483312173521209,0.182571210844935
602,1441,0.522252047201028,0.339747756295841,0.936415982778899,0.159726627609201,0.0853533944173576,0.0202338403161516,-0.288833143464803,-0.380453196771191,0.227962522277982
603,1442,0.524303582551158,0.340192958295908,0.936452722514018,0.166183874087432,0.0743618939739055,0.0212387235901803,-0.370696374189116,-0.301434703896688,0.224183128080182
604,1443,0.526393151448178,0.340545622472056,0.936442884659566,0.17247304119388,0.0638401992189141,0.0215553591920986,-0.419528582830752,-0.294227300106004,0.21622371399067
605,1444,0.528494275283237,0.340779093482766,0.936393932027508,0.177286562889817,0.0524464048853616,0.0222385776528091,-0.389716433448154,-0.283484460519699,0.235485346417049
606,1445,0.530586008469497,0.340900048298941,0.936314229802365,0.180203728410868,0.0406767362362418,0.0223011553919373,-0.331996439469876,-0.293660270855824,0.169010555374731
607,1446,0.532683288359773,0.340959078519014,0.93619491924151,0.181353744716651,0.0299979610156169,0.0219505314409017,-0.368101726203249,-0.329967116251963,0.16413356613979
608,1447,0.534807995683488,0.34073518784006,0.935872837517626,0.180719320262163,0.0252276429059447,0.0197165482847413,-0.357216569048963,-0.313504007235905,0.034778698602064
609,1448,0.536747587654677,0.340764961355787,0.935705686803712,0.179469615803619,0.0166937587776875,0.0172437317474132,-0.310416391380028,-0.394437148879194,0.0203742279653723
610,1449,0.538628562895643,0.340839062624961,0.935499991935468,0.175526888513413,0.0142656824480138,0.0122139787714101,-0.424547966623322,-0.355410265884268,-0.0592961127090105
611,1450,0.540465397213066,0.340960601787849,0.935265759637128,0.172195367950317,0.0123634749313675,0.00761657180984873,-0.35908592840032,-0.343297551486868,-0.0687319512382971
612,1451,0.542298536488027,0.341149717102479,0.935018931047852,0.170551124460639,0.0116363442155758,0.00265650863243072,-0.355003675181102,-0.372971273751485,-0.166009582974547
613,1452,0.544126520410436,0.341404403752803,0.934776545553075,0.168838109569648,0.0113917022729184,-0.000605129331704057,-0.35964574517631,-0.332995593599988,-0.157723033462319
614,1453,0.545948133768985,0.341715965599375,0.934545567292599,0.168187366509981,0.0113339924491529,-0.00345864980667786,-0.345660413329388,-0.298373235027298,-0.190810493018654
615,1454,0.54776706794167,0.342071465018912,0.934319498397586,0.168801333098395,0.0116932139561011,-0.00660721246957785,-0.349655875310619,-0.326404016944597,-0.242750120524149
616,1455,0.549582966419851,0.342437583054378,0.934099405436767,0.170237516244324,0.012419073001199,-0.00812547987157112,-0.304335640767228,-0.226794316978314,-0.153505738173006
617,1456,0.551349017917268,0.342790843464854,0.933894399638846,0.169627176118388,0.0131845106528658,-0.00770721448592802,-0.24961389778119,-0.205833417845134,-0.0534368008882289
618,1457,0.55304174953017,0.343122737219457,0.933699711384826,0.168098501254674,0.0135171121376297,-0.00658013280642958,-0.277003992554618,-0.193368418098479,0.0339027222924229
619,1458,0.554641038740497,0.343436416718919,0.933513719331281,0.165440797983449,0.0138178499415869,-0.00431778107680545,-0.220066078371807,-0.19321792725904,0.150516696332165
620,1459,0.556155494561777,0.343709349050761,0.933334828401019,0.162275410437441,0.0132283362276283,-0.00174020146242558,-0.201955271847734,-0.14983259215435,0.225434660786251
621,1460,0.557596649119954,0.343931545538829,0.933161522681033,0.158522719780034,0.0120436156241454,0.000507906295980326,-0.188218675559818,-0.112734170738713,0.23817054036881
622,1461,0.559003763878099,0.344087001243733,0.932987853058701,0.155306624664208,0.00957349760229901,0.0020853955587264,-0.218588752360985,-0.0849607391399268,0.233229630614115
623,1462,0.560426688034119,0.344219010419759,0.932837384634019,0.151689442122446,0.00641102542872384,0.00301620523320883,-0.215965923347765,-0.0650297476055345,0.213262280731581
624,1463,0.56184768323317,0.344265587097836,0.932656744547476,0.148641844370783,0.00344968271341442,0.00370918169214348,-0.323593055158514,-0.0511181229980009,0.165775759406752
625,1464,0.563307220205676,0.344295305469498,0.932476532593202,0.146932688512768,0.00276045041034133,0.00495996195227713,-0.264476634648942,-0.0166359042631462,0.196159715530274
626,1465,0.564824190924444,0.344318180745867,0.932295044536077,0.145959882794655,0.0024928478911401,0.00559649589845248,-0.326959786665738,-0.0353361031266719,0.168160014851875
627,1466,0.56638931906024,0.344394655411499,0.932097297197812,0.145771652714056,0.00139109700622363,0.00608398741712705,-0.317320017599573,-0.0995533098799967,0.174751472227976
628,1467,0.56797692211635,0.344386394778689,0.931911139392981,0.145770322017574,-0.00112480890430534,0.00783101837126276,-0.243853158736657,-0.239199386898782,0.269195540105177
629,1468,0.569567013272909,0.344367213646869,0.93173788438307,0.145083160382186,-0.00327939816109669,0.0110286458581228,-0.185618592580674,-0.271634166433907,0.383495809607077
630,1469,0.571143130440047,0.34434153732551,0.931586791339294,0.144094313962469,-0.00587354198787255,0.0154058653714074,-0.143688429482363,-0.302425044829301,0.502639627194889
631,1470,0.572668454478675,0.34433045011378,0.931498171002212,0.142201983499852,-0.0071950021655733,0.019948224305172,-0.140718003733565,-0.252675782620272,0.529474053431465
632,1471,0.574146442028498,0.344331783053261,0.931526691053479,0.14066458030723,-0.00831381969813705,0.0240064477595322,-0.119560077439671,-0.242137652542309,0.499723189008282
633,1472,0.57556531140088,0.344338404546465,0.931637474128963,0.138290962065113,-0.00931438864477771,0.0277678245631979,-0.0725768190699312,-0.252646794862631,0.443707988103746
634,1473,0.576948581224823,0.344336160647068,0.931804085617826,0.136649817842909,-0.0112403653168362,0.0301481476054102,0.00147080298667618,-0.204335434814185,0.31363329115039
635,1474,0.578326336192994,0.344315350601521,0.932006825633803,0.135279496128144,-0.0140603862155302,0.0321396873873424,0.076722020652949,-0.271855371992494,0.249408761270345
636,1475,0.579732162157954,0.344255539325019,0.932227138159635,0.136255415299995,-0.0174904593543121,0.0324948746052099,0.0945501555812582,-0.248847986007586,0.146111179058852
637,1476,0.58115103694845,0.344136279500628,0.932457448591548,0.137251122897952,-0.0212444815775977,0.0330036805398896,0.109924877259444,-0.232327549544216,0.131461104867601
638,1477,0.582528930464352,0.343963231831122,0.932686173613867,0.137490269489089,-0.0240473075276733,0.0316404817805962,0.0227216862402716,-0.102265723501559,-0.0045787975678809
639,1478,0.583794970458865,0.343770316526715,0.932901041224276,0.135710968024466,-0.0260279195793155,0.0284708336130523,0.0181173063963317,0.0413332458665734,-0.158938105530826
640,1479,0.584925491979372,0.343593784519655,0.933103449106956,0.131748249810719,-0.0266212247838839,0.0253874178169823,0.157613924796614,0.0602590734092993,-0.197627448325725
641,1480,0.58598120648907,0.343440354238328,0.933293973073382,0.127954737896398,-0.0249062011908821,0.0215932534100802,0.202927719855535,0.0187985322377052,-0.238168960445707
642,1481,0.587000959344654,0.343326583511545,0.933473953276193,0.123400017439632,-0.0207891592875543,0.0178246382667936,0.0614885725209385,0.092348222393495,-0.241290240644244
643,1482,0.587999209746471,0.343277920625409,0.933652240391312,0.119103712711797,-0.0149112708811022,0.0155445821167742,0.0606800003524925,0.160147033543931,-0.151384547196071
644,1483,0.58897887666838,0.343307252095237,0.93383572847659,0.114498185012716,-0.00800765248066818,0.0143514852925713,-0.0403466264396643,0.169692409335209,-0.0775103561654957
645,1484,0.589901059446601,0.343415242490317,0.934028685121218,0.108257239057773,-0.00165178354194401,0.014063558063926,-0.125304530288018,0.176444426258024,-0.0374364008484605
646,1485,0.590759197799164,0.343693323007941,0.934211109455155,0.102822112579001,0.00376433895154798,0.0131137591759445,-0.122643519460082,0.0794109614682283,-0.0696574409292415
647,1486,0.591575556103698,0.343950411782894,0.93440139610137,0.0981325985031156,0.00853771188223471,0.0118674723272474,-0.00807188106405149,0.0157144553511109,-0.116231829405369
648,1487,0.592404849313872,0.344266698605224,0.934592365881205,0.0951645802214812,0.0114434083617359,0.011103945412655,0.110007670923899,-0.0118412457879649,-0.105378037602528
649,1488,0.593303076205827,0.344632418972982,0.934793900085013,0.0938537472442887,0.0147591315079397,0.0110648399908452,0.15735660672477,-0.041693934664903,-0.0785633505756357
650,1489,0.594293662732303,0.345033794747754,0.935010813671956,0.094392795622515,0.0178509162938419,0.0120154528991074,0.125685516477299,-0.0256163498058372,-0.0177020313079023
651,1490,0.595388320794771,0.345463672493932,0.935245123353204,0.0958409161772471,0.021455708732806,0.013201307931599,0.0476800691514506,0.0597027343971087,-0.0180350574837479
652,1491,0.596549962435154,0.345919796343318,0.935491155677511,0.0977528310821027,0.0258962003979573,0.0141071870097089,-0.0740961574607801,0.149335951237515,-0.0374645580496593
653,1492,0.597755977876817,0.346404174362132,0.935733101815766,0.101046058267863,0.0311779635373805,0.0134884772986648,-0.185709960264009,0.144177794216269,-0.0974333177591479
654,1493,0.598966226928132,0.346906502708019,0.935964548699117,0.103908450089934,0.0366055053865708,0.0125420671205789,-0.148740814060495,0.188241831765329,-0.137993272129726
655,1494,0.600187762230175,0.347440680785894,0.936175358280676,0.107789527837414,0.0428648966702951,0.0100245590022167,-0.112417445740672,0.101932231777185,-0.21684193941471
656,1495,0.601429950976505,0.347976181764958,0.936363086856368,0.110852729328265,0.0481746522062926,0.00735745886839763,-0.160276606373137,0.177301879884405,-0.244115522730635
657,1496,0.602678333205904,0.348511488831838,0.93652948484784,0.113281044200806,0.0534384559112668,0.00481183301480348,-0.140784884041828,0.127708664157353,-0.252437509020897
658,1497,0.603913434222645,0.349021746863305,0.936680178322075,0.114056222661111,0.0570727314589716,0.00252332037128209,-0.191467319877632,0.228313021820133,-0.264733840770618
659,1498,0.605118826230028,0.349512081919756,0.936819919075629,0.113532327693437,0.0596762161632322,0.000676042134613297,-0.173443889844931,0.315244700465658,-0.262457984028063
660,1499,0.606299451267955,0.34998596289235,0.936950825929474,0.111989997484903,0.0609682117869374,-0.000484009765241628,-0.156822778615441,0.34677184822079,-0.23153664120599
661,1500,0.607466074792725,0.350480808720599,0.937151954484588,0.11019123605003,0.062623459433738,-0.00114454709715313,-0.170267840879661,0.390991233834366,-0.251644663199133
662,1501,0.608641532190694,0.350950499221979,0.937419887839433,0.109444204534296,0.0630095040732635,-0.00129813858232301,-0.11663716673446,0.374909471215073,-0.249665155721189
663,1502,0.609825994927458,0.351445774784784,0.937697637890861,0.109195722229379,0.064214962823614,-0.00144895573311843,-0.103618389354631,0.424663719841425,-0.258292284397692
664,1503,0.611014217165312,0.351940136490003,0.937982130459933,0.108800802611165,0.0645817246603883,-0.00105695789744441,-0.0696591645626885,0.364186899688039,-0.236164450880622
665,1504,0.612185769955037,0.352428318245292,0.938270840180193,0.108028089825278,0.0650714619588307,-0.000670533265283466,-0.0191871038890107,0.360490289317392,-0.24693242299467
666,1505,0.613330059152474,0.352906633814024,0.938558935300145,0.10687886785596,0.0653847175302638,-0.000534209924777011,-0.0558063376450003,0.352113884604293,-0.255963013032762
667,1506,0.614438307858039,0.353459999536899,0.938828292430729,0.10580116757075,0.0652241364017889,-0.00126976372356164,-0.0760542650464868,0.321863773350802,-0.298930885058621
668,1507,0.615493303093994,0.353926537918841,0.939086835041841,0.105174749021572,0.0663142698415701,-0.00287310739456292,-0.0862798847233229,0.328778885472257,-0.327931851733921
669,1508,0.616508670090253,0.354390157403612,0.939325286703811,0.103899028314679,0.0676296842347525,-0.00406228923184401,-0.0438822718613304,0.302801527444718,-0.307584993899347
670,1509,0.617502550027096,0.354894688473812,0.939537187757652,0.103949953477838,0.0703732998599356,-0.00601875848920584,-0.0732754088238897,0.351339048295395,-0.304764171787311
671,1510,0.618471047327514,0.355423713552282,0.939734481776509,0.102539543517528,0.0730786743946764,-0.00590034888039646,-0.0338167983992521,0.387840075906336,-0.167483430834588
672,1511,0.61940828450238,0.356007353017763,0.939924290383481,0.10180827740612,0.0759189960240693,-0.00513202001605098,0.0287460841702894,0.415052669443048,-0.0792557801896549
673,1512,0.620311154291442,0.356629672068422,0.940103916897107,0.1003614611755,0.0780892145831744,-0.00349525636777153,0.06319545879132,0.434203157526206,0.0147705758736496
674,1513,0.62115072199426,0.357327423245557,0.940276345570059,0.0983609248748774,0.0812108133201708,-0.00125547974116814,0.120453410147291,0.455970629413521,0.0934986427622121
675,1514,0.621967213494696,0.358066431932821,0.94043831592612,0.0971691024300131,0.0834684706873073,0.000752068076916174,0.117285427563978,0.453882578777573,0.140902161894922
676,1515,0.622755662577145,0.358840798623473,0.940588403765689,0.0959103268654116,0.085220762467601,0.00282774880757357,0.091314835360401,0.50200979466715,0.188499574004441
677,1516,0.623539182174079,0.359624376874767,0.940725734085373,0.0945276109083811,0.0857272026940863,0.00453719016610856,0.0951514751668005,0.499579470203831,0.192934147796835
