,Frame,CoM pos x,CoM pos y,CoM pos z,CoM vel x,CoM vel y,CoM vel z,CoM acc x,CoM acc y,CoM acc z
0,1060,0.543946364907383,0.121876085155564,0.959749910200821,0.117531730242869,-0.0219083269875064,-0.12281636348905,0.365095931405274,-0.423456244579588,-2.39375759797326
1,1061,0.544358341587877,0.121996625939282,0.958865270030948,0.111564565992658,-0.0281111236841688,-0.13864426367702,0.839009044256904,-0.11970593839283,-2.16115235052195
2,1062,0.544713476595847,0.121977895955588,0.957999535606117,0.101200915028308,-0.0359799969217022,-0.152256890053189,0.615795637009589,-0.294309226643065,-2.1584088469883
3,1063,0.544999078988176,0.121819746609978,0.957134891413705,0.0888792481239312,-0.0442952513697197,-0.165925875567999,0.0915285615315756,-0.389643525789125,-2.1196341079796
4,1064,0.545285175227059,0.12151449387977,0.956216440556123,0.0715305490564434,-0.0592423307459037,-0.175077065303107,-1.75793105592313,-1.71003942772213,-1.04965435724142
5,1065,0.545343822002728,0.120901810774128,0.955484879031735,0.0254184703385622,-0.0841631804415567,-0.150213876177561,-2.9035538266408,-2.26517369446706,1.53295334014586
6,1066,0.545292787987497,0.119721985329193,0.955240707801539,-0.0139808478939659,-0.116895382963771,-0.103976128065371,-0.521942223073588,-1.40839054765357,2.17317737853906
7,1067,0.545671442204353,0.118605815231363,0.955175234627141,0.00875150804999552,-0.111864373741882,-0.0800774201348016,1.454331827433,-0.151603044961336,1.1926863570496
8,1068,0.546215499019577,0.117770458869149,0.955260060390598,0.0332813649937288,-0.0747822922179803,-0.0521098319650773,0.960782685448716,1.89253020551239,1.83852598603452
9,1069,0.546700328399405,0.117216978135872,0.955462692652455,0.0382132873945418,-0.042716092131844,-0.0287409700287652,0.0462249342480599,1.74226514773568,1.83517030599971
10,1070,0.547363323205982,0.116928562431391,0.955707137262742,0.0396684250325853,-0.0267169951618269,-0.0243334640160227,-0.940647132352725,-0.486340924919418,0.516144920484331
11,1071,0.548004054438654,0.116628744869422,0.955906621303836,0.0437746637791998,-0.0343174402344487,-0.0296921077291206,-0.0438375855158301,-2.01168163830887,-0.763968036713164
12,1072,0.548420328475944,0.11619288715126,0.956030851210603,0.0392993199925023,-0.0561233020951672,-0.0336715500458724,0.292823902228112,-1.31958322669582,-0.993822494585157
13,1073,0.548381013335573,0.115641700104674,0.956138585412094,0.0212149537648783,-0.0759103617859976,-0.0232978073112428,0.729748305533341,0.269775738220398,0.168594327615867
14,1074,0.547745642980224,0.114943338064139,0.956324684437316,-0.00125867791098631,-0.0888279888455124,-0.000969249683472797,1.542817783696,0.629071297327257,1.37735127990855
15,1075,0.546797652516386,0.114131474362344,0.956598924032959,-0.0142107522881616,-0.0950451511503846,0.0145445999456227,0.834334907682171,-0.575675199191496,1.30240421784514
16,1076,0.545838531596906,0.113303525593329,0.956914378644465,-0.0188775827608665,-0.0922582060121829,0.0239941188922046,-0.625905471641003,-1.10745208988792,1.11465339224382
17,1077,0.54500850973132,0.112528870625209,0.957251100319135,-0.0138671424652228,-0.0823005259007445,0.0322052783556117,-0.833285571686708,-0.749061848382632,1.05072646097751
18,1078,0.544464951015788,0.111841346431993,0.957556106444456,-0.00911437880723926,-0.0683053078625378,0.0358361140432896,-1.38671937358887,-0.0695562110947366,0.654537156322088
19,1079,0.544233305303549,0.11126528283553,0.957801936733938,-0.00541530017797488,-0.0560409023975128,0.0309504000787827,-1.91007363259942,0.091254795307237,0.067161517065093
20,1080,0.544300020502224,0.110779524551492,0.957964271146906,-0.00108424814971881,-0.0497373666124348,0.0256884601911902,-1.31357981098988,-0.129913622970342,-0.0477919726010823
21,1081,0.544611909122797,0.110335486805639,0.958074678872011,0.00186867470806186,-0.0501608486421408,0.0234767906289316,-0.599685384377958,-0.38526337792443,0.0188814124586883
22,1082,0.545146118205061,0.1099054807021,0.958155035113893,0.00412882217609158,-0.0542143280212271,0.0218343519778862,-0.374435345437268,-0.357534264545057,-0.0311659437949469
23,1083,0.545794454498367,0.10946331190198,0.95821062316282,0.00541395609521115,-0.0597698588611079,0.0184960830999124,-0.231328875474608,-0.249760003000631,-0.226371322520799
24,1084,0.546439016462014,0.109032099584462,0.960242483660017,0.00598277666828057,-0.0669285797774372,0.0292470726698188,0.172596608098505,-0.101501006245572,-0.12753336248367
25,1085,0.544659688074896,0.108142385025539,0.962284022246063,-0.0191212661204142,-0.0788617326470169,0.0415153176721949,0.432072309416975,-0.0605726249159556,0.0523173668058799
26,1086,0.544841468345288,0.107703945705262,0.963833850047556,-0.0167006010722244,-0.0813095926992979,0.0503603712146445,0.593320828406684,0.0513648931395505,0.22208811852039
27,1087,0.544303509340867,0.107074366712984,0.965135327504222,-0.011643629965797,-0.0775833315224883,0.056436639751801,0.46500204266792,0.105803007261325,0.34822799064728
28,1088,0.544384462756114,0.106549740325438,0.966279980818155,0.00385324280368412,-0.069428120568358,0.0607687063912948,0.196020742713024,0.204906657754426,0.43197305968118
29,1089,0.544500387497407,0.106027963563707,0.967308524193904,0.0165882894356711,-0.0604704514364795,0.0637256874399378,-0.0126698265425862,0.213653438561324,0.463409923094649
30,1090,0.544885946597236,0.105537080602847,0.968237145729079,0.0294859340508077,-0.0522222895650387,0.0644428104629979,-0.156109991560376,0.125799395906372,0.387331814925742
31,1091,0.545307289708738,0.105109424322355,0.96907808530171,0.0360267263358692,-0.0455835939296611,0.0642073803888248,-0.0374813820321755,0.0208326782097734,0.299140153719681
32,1092,0.545843740400393,0.104745736334942,0.969836760903131,0.041746726573528,-0.0402407740029817,0.0628843362955815,0.0567331572717513,-0.0225756389180607,0.207886449349683
33,1093,0.546407742290485,0.104471760346284,0.970519863402838,0.0437233687937753,-0.0347730168526019,0.0610358984649399,0.160917656169019,-0.0839944094065896,0.14357480936694
34,1094,0.546998750012708,0.104278311840857,0.971133561992068,0.0442154366458605,-0.0290989934722343,0.0588621443347034,0.313773896017711,0.121841830770483,0.094931113881743
35,1095,0.547647176949996,0.104147335014705,0.971678144645273,0.045953645585614,-0.0231557390530557,0.0552681214130386,0.254783879463845,0.234404907853568,-0.00276908428112856
36,1096,0.548360998167251,0.104088883692979,0.972150784619035,0.0488707664715777,-0.0161181334453145,0.0502615990969933,0.169128153466892,0.280980056912674,-0.118113878580189
37,1097,0.549119748204379,0.104065408164916,0.972555293880232,0.0521178617127123,-0.0103896398338918,0.0446638316992539,0.0700556813286264,0.36261589144163,-0.181466714957808
38,1098,0.54991246149486,0.104030992666262,0.972900140273173,0.0549898157485421,-0.00615997383801452,0.038550296924614,0.117976164171063,0.377272238657814,-0.260485656157794
39,1099,0.550762854940308,0.10395812491137,0.973185703156219,0.061084690807316,-0.00405015675340408,0.031113379667595,0.0101941736873547,0.35373098179386,-0.351850762333956
40,1100,0.551643800952074,0.103848673002345,0.973419290831775,0.0666549368901136,-0.00202541485774995,0.0235945024856341,-0.0292902734231315,0.342812044044553,-0.398015653222193
41,1101,0.552525730294994,0.103712718654633,0.973606626452142,0.0711461855984052,-0.000141186216331875,0.0156145680885672,-0.162989402816456,0.189506584051225,-0.465708325915895
42,1102,0.55335936154541,0.103548371114159,0.9737542142499,0.0747583629632232,-4.74372177475109e-05,0.00726511405736204,-0.237100619643422,0.112666654744911,-0.536243864067165
43,1103,0.554071991751166,0.103380032565207,0.973870170314021,0.0763798478951734,-0.000537164639563399,-0.00076788099055989,-0.264702137021398,-0.0540329897446519,-0.567223804894501
44,1104,0.554762551264285,0.103146858191221,0.973967127336382,0.0760010370666722,-0.00446320922011418,-0.00597657354765192,-0.0750687301820096,-0.159720338761238,-0.432657991449595
45,1105,0.555428688523838,0.102876517005211,0.974068235552887,0.0752999084214959,-0.00928940942731121,-0.00798222317258717,0.105722170571969,-0.174428977944103,-0.22470195346235
46,1106,0.556114542698923,0.102574734125573,0.97418526204112,0.0749955284488332,-0.0141228580254746,-0.00778620922618645,0.0831570247997631,-0.221284642503793,-0.0481855996929391
47,1107,0.556819175213078,0.102244840874395,0.97432509368008,0.0756040480052979,-0.0186023910695311,-0.00567095716691258,0.0820749309690935,-0.192236735740298,0.113947013176283
48,1108,0.557534224330122,0.101890315961112,0.97449419622321,0.0768284325021549,-0.0231076973050369,-0.0019123551573035,0.267451632620673,-0.200525824410589,0.240029994427845
49,1109,0.558292036039268,0.101556861765699,0.974679934306711,0.0800009277194345,-0.0255505635325665,0.00109511851940219,0.287968971905276,-0.243030795424577,0.224096322330155
50,1110,0.559136225696274,0.10123899564683,0.974866875634594,0.0843813169209392,-0.0262489184231703,0.00304735166845216,0.256696442426208,-0.214162953833856,0.15347378689877
51,1111,0.560062226214774,0.100975371610424,0.975050004281144,0.0875713956436356,-0.0260384166640484,0.00605284307639246,0.246802981690577,-0.0677255356813193,0.232212332899284
52,1112,0.561084307877785,0.100768469246892,0.97522657634768,0.0911458749927975,-0.0235136358202047,0.00923003578625824,0.188388427024929,0.0669687494187752,0.285698223540126
53,1113,0.562174141571586,0.1006163163477,0.975398600057269,0.0947508975117184,-0.0203902134154439,0.0128140691137808,0.063161664359497,0.172520173918864,0.353747843162793
54,1114,0.563335796806965,0.100433140771503,0.975568799304804,0.0972189001637822,-0.0181793816505598,0.0161439315824977,0.0106480212630721,0.198325236124517,0.350771247574385
55,1115,0.564475528264141,0.100224314079749,0.975733479860148,0.100008105306772,-0.0175996621194397,0.0182470187195245,0.0473910607506573,0.19983717685864,0.274830626314908
56,1116,0.565587943168993,0.0999945777298254,0.975882139318072,0.102297584965446,-0.0162925472406207,0.0186927574502288,-0.023389989495751,0.223701216641251,0.170238772387199
57,1117,0.566614540224255,0.0997581297517561,0.976008284275742,0.102725115886684,-0.0162657512398965,0.0181676859930284,-0.0607258271965448,0.16976525048795,0.0969571903383823
58,1118,0.567568474273252,0.0995221473138183,0.976104223415243,0.103565490522018,-0.015720362540304,0.0160252254741914,-0.170857380773378,0.205019169218196,0.00333434117091102
59,1119,0.56841506857639,0.0992912511358515,0.976171064636251,0.102191590318463,-0.0160868208680604,0.0131938455223047,-0.158712494482328,0.115390566665099,-0.0704286398181055
60,1120,0.569178563511466,0.0990587623933657,0.976216236005684,0.0995594372226791,-0.0164789350600072,0.0104543809242391,-0.0957739954413239,0.166689612958252,-0.0939904135199461
61,1121,0.569887245971206,0.0988263830737585,0.976245788653421,0.0952474828926998,-0.0164280440993567,0.00811025405420183,0.0123820245661644,0.224343501265117,-0.110049849523717
62,1122,0.570594006486305,0.0985952034045504,0.976261396350837,0.0909190077989666,-0.0158896091386467,0.00574053474984005,0.0740780673259757,0.310917650229619,-0.154319872339827
63,1123,0.571362180800648,0.0983583097207364,0.976260008670155,0.0896753061211582,-0.015281975716002,0.00272744674906783,-0.0149700762072216,0.326476008098668,-0.197149844594437
64,1124,0.572153557919726,0.0981790889402067,0.976242214783609,0.0882881563745203,-0.0132450417424476,-0.00018109659420968,0.00944215651716874,0.346452882423552,-0.219045909343167
65,1125,0.573052389700718,0.0979585419020977,0.976214232932538,0.0882437282032088,-0.0132407124774302,-0.00195783448904375,0.0103094276417606,0.297877143722956,-0.152595638884611
66,1126,0.574019868285156,0.0977394523737759,0.976183647783941,0.0901861546334414,-0.0124092747580308,-0.00428663286469029,-0.0404908860080963,0.235517757196786,-0.196177842702319
67,1127,0.575017520196305,0.0975094034821267,0.97615735458707,0.0919063923715858,-0.0124915939896949,-0.00528052221505116,0.00334431828408632,0.212776403863883,-0.123999792519002
68,1128,0.576019039733461,0.097281619684148,0.976142867610974,0.0931859246405524,-0.012157761708073,-0.00561712216493399,0.0634363677171051,0.213720091836631,-0.0868683802963133
69,1129,0.577040623526963,0.0970671961609769,0.976141668691133,0.0946363323152359,-0.0116195929869315,-0.00539551704013986,0.116707920999478,0.178256576767198,-0.0528165536480262
70,1130,0.578102747216512,0.0968632976544428,0.976153039082537,0.0971578298655542,-0.0112459738485995,-0.00506504207014913,0.136003589171905,0.17194507983136,-0.0577052923550883
71,1131,0.579220317323565,0.0966595255526584,0.976174389885047,0.0999099104225815,-0.0112552707169941,-0.00439415182115973,0.144091649679429,0.197675321291338,-0.0469542477803893
72,1132,0.580434392445471,0.0964539369968587,0.976196356015663,0.105986003942661,-0.0109421258146368,-0.00488011186445689,0.0672414092861304,0.137655774253709,-0.108478979594899
73,1133,0.581740283997463,0.0962197237285509,0.976215796425304,0.11216732905233,-0.0119427522424428,-0.00484052543831552,0.0231354657838956,0.116888405135493,-0.0745272496009013
74,1134,0.583113683861722,0.0959891205708122,0.976235104309179,0.120112593149167,-0.0126173954627581,-0.00398270924312954,0.10753044855403,0.0690562361430386,0.0167574320690186
75,1135,0.584564976543102,0.0957488107016907,0.976266121346149,0.126829183040158,-0.0125773565014121,-0.00147717369653095,0.136341389024106,0.182935483499305,0.156152160705193
76,1136,0.586009606093319,0.095551000801408,0.976318497364317,0.131331762836634,-0.0122230993690988,0.00253286055428065,0.0716861759986708,0.157977010130698,0.311656074854135
77,1137,0.587462524246492,0.0953610847928938,0.976389629313612,0.137979347693641,-0.0112615921705151,0.00508581469957912,0.103515433834903,0.00705473225572155,0.239258629154163
78,1138,0.588912385880324,0.0952229015667556,0.976468723353845,0.143716269770083,-0.00936710985020554,0.00684223007463893,0.126858106839178,-0.0457284765043143,0.166752491551642
79,1139,0.590335270396802,0.0951344020919252,0.976549442114426,0.146687182193424,-0.00729174737298754,0.00834637984093814,0.0748207081345646,0.0350909241049281,0.126296068649918
80,1140,0.591706686263704,0.0951230270221264,0.976629143502965,0.147029795774017,-0.00611017248454892,0.00992676553961785,0.0663130696414812,0.0753632739054547,0.118824117847585
81,1141,0.593045844035046,0.0951994112924512,0.976698778804171,0.147430417763499,-0.00298208491441931,0.0104252859089277,0.0601673678884209,0.118094431430428,0.0486115237373581
82,1142,0.594347872291328,0.0953668675587538,0.976753490518754,0.146814511243764,0.00166646374530963,0.0106539842366987,0.0867801575385783,0.173718542397654,0.0217507645050696
83,1143,0.595587478464572,0.0956711286211773,0.976787026837741,0.145069996783916,0.00844962454110453,0.0106556275409059,0.0763657534479789,0.301362479973314,0.018582924434359
84,1144,0.596816559303335,0.0960081523950057,0.976803473384941,0.142471999842491,0.014253517218458,0.0111798601910637,0.118763435151027,0.328830428009377,0.0502400861042877
85,1145,0.597979905872074,0.0964125254723406,0.9768184060079,0.138594254437978,0.0196308294191052,0.0123490837782471,0.201497367683426,0.330258668468782,0.0795457403574013
86,1146,0.599223150434299,0.0967693701717614,0.976831012951442,0.136285751619277,0.0243494783387859,0.0130048689254626,0.194322114441161,0.310074005722094,0.0532513717710243
87,1147,0.600431778534567,0.0971454899953721,0.976839650882649,0.132584161320507,0.0286284998932707,0.0135537176556301,0.109330735660891,0.305155529513845,0.0521309890853493
88,1148,0.601642609722259,0.0975082159604006,0.976840479635658,0.129425971956001,0.0337953959563064,0.0140637400550068,0.137636606510012,0.397495145596763,0.0545692415833368
89,1149,0.60283209154729,0.0978926081481852,0.976827238007694,0.126495476787442,0.0381757117598956,0.0139584530366038,0.0572407816919281,0.420075783377096,0.032732537898765
90,1150,0.603997800248604,0.0982862775959126,0.976799963248548,0.123070195906644,0.0415732066674329,0.0140559602763457,-0.00482092165329346,0.432997565392868,0.065996813037896
91,1151,0.605133010269501,0.0986932993434033,0.97676196348884,0.119859239377873,0.0441270656813253,0.0142140781928784,-0.0481444388330591,0.381856269607449,0.0968892719482323
92,1152,0.606249639783524,0.0990788155369039,0.976718113341916,0.116802706841616,0.044479810194021,0.0144554656197172,-0.0749244754148123,0.293618799678336,0.120710686238766
93,1153,0.607349958384023,0.099441023081972,0.976673155212857,0.114326342597475,0.0442842717509154,0.0149079314667431,-0.0984568754917637,0.206859616499353,0.158248656708071
94,1154,0.608464425388719,0.0997543775437061,0.976626304249736,0.113355934558942,0.0418768964776635,0.0149382764843862,-0.160471634117028,0.213518052612555,0.145271667569698
95,1155,0.609584717703726,0.10006579406945,0.976575360887522,0.112739761307171,0.0408660523058434,0.0144530250216509,-0.185336881748912,0.122346192009206,0.120616105167129
96,1156,0.610698030518062,0.100349939123167,0.976522304246264,0.110992718937002,0.0379509875417452,0.0133515761283693,-0.283907725516318,0.230944669155119,0.0553473879049383
97,1157,0.611779429211852,0.100652307628474,0.976465820343189,0.108794485922118,0.0362428274771044,0.0117807441136085,-0.299420336905474,0.16583039754109,0.00498222854145491
98,1158,0.612814689581143,0.100960267309308,0.976408993800663,0.105607103671455,0.0342399511389798,0.00998855671796826,-0.263325693463977,0.18362907140257,-0.0497118535393569
99,1159,0.613819193151556,0.101256143795808,0.976354502032461,0.102227971803078,0.0318567553778249,0.0078216197549459,-0.210192126594154,0.146435950399407,-0.110954596180755
100,1160,0.614840647244013,0.101509185964591,0.976308206604865,0.0988034539251125,0.0288704999298555,0.00629774712553842,-0.158934347396574,0.129025135289705,-0.108260271537556
101,1161,0.615914699850624,0.101718040562735,0.976273359421321,0.0977026505401832,0.0256393538075682,0.00455654698273048,-0.158522736923705,0.0788288976861367,-0.149277496268852
102,1162,0.617036692967413,0.101887773311189,0.976251336172494,0.0978814630877947,0.0243439847549307,0.00240574920185123,-0.202135684908986,0.110396066434419,-0.203646284068811
103,1163,0.618132179678973,0.102050353347873,0.976250937781451,0.0960665934711501,0.0233109610834335,0.00210048313300238,-0.160858902956365,0.192920917076957,-0.134984836436612
104,1164,0.619177137447035,0.102243213911686,0.976264227231126,0.0960465579859775,0.023720719909891,0.000973840804655512,-0.158363389018902,0.183050267266393,-0.183168142000762
105,1165,0.620207122917751,0.10243520980185,0.976285438902352,0.0967387725646349,0.0248234096953339,-0.000124008014909663,-0.131342707199462,0.156073483798711,-0.199801985128004
106,1166,0.621191937117869,0.102656032572192,0.976310918298668,0.0971445358156029,0.0261602751330406,-0.00113695012538522,-0.134636147837427,0.139862454774907,-0.198777524456416
107,1167,0.622134878795347,0.102897469307188,0.976338242811095,0.0959706652188392,0.0279340654176994,-0.00106469296765192,-0.137117670466748,0.201520668263131,-0.128254377602607
108,1168,0.62303497647252,0.103167116288407,0.976367659869716,0.0937931237371758,0.0298471513486417,-0.00053967825810115,-0.109123475430034,0.205408726409782,-0.0933235039661416
109,1169,0.623860448084419,0.10344353712789,0.976402185542875,0.0898212805460435,0.0306978712529462,0.000522985238927808,-0.128401496680823,0.126126379403349,-0.0437222188671028
110,1170,0.624594561980436,0.103726997784706,0.976444284683204,0.0850500267781361,0.0324303643348198,0.00176589855786026,-0.0465418677743435,0.123257862944097,-0.0214052252819299
111,1171,0.625229142439827,0.104016156793853,0.976493926492376,0.0806668594326416,0.0349171437686732,0.00263003650161861,-0.0671843460157954,0.11711043768151,-0.0166957700566587
112,1172,0.625728497391845,0.104321743684786,0.976552685368134,0.0747350022404082,0.0363037918331396,0.00375758239822734,-0.0629531543022077,0.136141527123697,0.0105313288650194
113,1173,0.626075991688261,0.104657390752849,0.976625913911641,0.0681377212598594,0.0385029440538473,0.00575820691658269,0.108091259559993,0.0470094112072642,0.0773767749488989
114,1174,0.626289392477434,0.104991321935822,0.976711238586198,0.0622425959465048,0.0392178187684347,0.00754255220493798,0.088699473115467,0.0823784515319013,0.0977877393655048
115,1175,0.62638029032093,0.105300910299851,0.976804945421825,0.0562824127943065,0.0399077624104138,0.00914684134104382,0.107650814222319,0.101204056143934,0.106319343041949
116,1176,0.626347676265671,0.105474945677877,0.976910771702868,0.047839353937578,0.0366221701519428,0.0117535601949589,0.188765944054572,0.0909252748674581,0.164776956557531
117,1177,0.626161167477042,0.105481781385587,0.977027366117755,0.0366333588943124,0.0293417375159676,0.0141780522039127,0.159186391888198,0.164312130219176,0.157179443579453
118,1178,0.625814109957536,0.105243648133017,0.977142798078335,0.0244214263066703,0.0192254335832356,0.0157035425933606,0.0888944462118622,0.16760069171951,0.12634393419513
119,1179,0.625274439997099,0.104794233015927,0.977249300354376,0.0108292461801127,0.0078830375981566,0.0160500835696958,0.0128913750082911,0.32987098623994,0.0472523629526999
120,1180,0.624515161595516,0.104102035853943,0.977344640550943,-0.00503479796072944,-0.00505271540402565,0.0166530524465579,0.044307496618466,0.273493657578254,0.0572966366484637
121,1181,0.62352018309988,0.103141300486658,0.977432873028929,-0.0221326353635479,-0.0212851227111871,0.0170967266875194,0.105428575301769,0.318530460242447,0.0440968939817455
122,1182,0.62228423445297,0.101931712765421,0.977514477245826,-0.0407655340526861,-0.0383007253571964,0.0177812916039714,0.115644810583658,0.322733107302125,0.0670281489839117
123,1183,0.620777996796103,0.100479828693299,0.977591834381725,-0.0608324603905058,-0.0566806871629528,0.0181392989898095,0.130805441887801,0.280721381136969,0.0516159514871217
124,1184,0.618973987467255,0.0988181078369116,0.977657289063935,-0.0819111000896188,-0.0756013058741446,0.0173284288028611,0.157675074369535,0.223236585454321,-0.0278603910729366
125,1185,0.616898745534069,0.0969631081237859,0.977709091731856,-0.104281581016014,-0.0942284388958641,0.0165033281207585,0.304176053580795,0.253010142303383,-0.0626674568507727
126,1186,0.614600127396456,0.0949491861650546,0.977739989439888,-0.125618532759093,-0.112442997087922,0.0148438461933818,0.362665014990103,0.271216149940025,-0.121885854923513
127,1187,0.612098330237286,0.0928082686709002,0.977742351237618,-0.147711715098988,-0.129129382226881,0.0130941223088837,0.367733978423993,0.319981138913353,-0.143971626918725
128,1188,0.609406580062707,0.0905832542358688,0.977710726116525,-0.170000947941742,-0.143263610019561,0.010743486440538,0.362159445367586,0.344119615459921,-0.186199969100453
129,1189,0.606547028497458,0.0882754296555155,0.977641729232836,-0.19146086530116,-0.156584689143423,0.00853112493082523,0.386150660875977,0.357156030737804,-0.169813504703043
130,1190,0.603538502189988,0.0858965074617491,0.977533229002669,-0.212596582371794,-0.168707736902687,0.0058784606849389,0.346820778095821,0.296444121846371,-0.18905828253007
131,1191,0.600406499669024,0.083478479088412,0.977383264211465,-0.231549575948779,-0.179128516873185,0.00255984783582204,0.280035329147762,0.317208567792236,-0.207928459441989
132,1192,0.597156612814984,0.0810438216968826,0.977191418184597,-0.248582230535648,-0.18632591953184,-0.00167470887218252,0.306136353180085,0.34808248530918,-0.271478242401164
133,1193,0.593731511956582,0.078540730645539,0.976946859458145,-0.261096993659667,-0.19101948056961,-0.00618380545844146,0.320062362744375,0.353069007840212,-0.291265120986274
134,1194,0.590376576706834,0.0761368782791155,0.97666844147024,-0.273003379629447,-0.195991508078697,-0.0115752166263401,0.208375480000929,0.293591890066222,-0.329065654500318
135,1195,0.587109874989004,0.0739765456125133,0.97637691450014,-0.282622682506006,-0.197373005806752,-0.0153149423730304,0.298370974102739,0.352268628394733,-0.261916123116698
136,1196,0.58369001905687,0.0715359411600094,0.976067910053573,-0.290783173579107,-0.20243162068107,-0.0190405953977222,0.21076275571544,0.404994269290191,-0.222443541987465
137,1197,0.580371134953055,0.0692812509188679,0.975747154445787,-0.296683101463836,-0.202948697927633,-0.0218149406123531,0.137272400051832,0.495992357320988,-0.152061079270542
138,1198,0.577010835802108,0.0669702842504606,0.975415978582127,-0.301036131769544,-0.203385431808946,-0.0237498347527413,0.20746825466985,0.437133525336044,-0.0739285134996163
139,1199,0.573723137132614,0.0647514979248761,0.975077256200862,-0.303391378834922,-0.202936356310979,-0.0246593394126676,0.209765877983642,0.349007583888792,0.0328503829963411
140,1200,0.570487164721534,0.0625721558597287,0.974730599990542,-0.30417375275227,-0.201480444367035,-0.0255162610484463,0.151810536244635,0.281995992651759,0.0747574055867607
141,1201,0.567329366637277,0.0604965232430436,0.974376270334466,-0.303996047009818,-0.197660869392367,-0.0257223936610625,0.122955160915535,0.287272652397679,0.14100806118616
142,1202,0.564274983944638,0.0585199833687582,0.974014313560963,-0.302175687043525,-0.193165715760716,-0.0252574989877751,0.108753228578157,0.268475050741744,0.225637026166542
143,1203,0.56135760494538,0.0566733393604518,0.973644870394831,-0.298223330780118,-0.187224485560754,-0.0244222402088655,0.101667851346286,0.220604998026567,0.287107406638544
144,1204,0.558830523380677,0.0552945266819885,0.973274246061201,-0.288801159405525,-0.176981362016109,-0.0233791985204194,0.0914145479278859,0.167727586384541,0.335950766729643
145,1205,0.557473538017953,0.0554566265814172,0.972921489814,-0.258451377568002,-0.137004364798028,-0.0216745812242467,-0.0113003132652881,0.0520874472001155,0.398278456029476
146,1206,0.559760489422379,0.0603081961350885,0.972626428056071,-0.167585978898396,-0.0179319081721594,-0.0189846252810251,-0.0268879113298553,0.175564637440747,0.43415433320358
147,1207,0.5670616352942,0.0715410497429298,0.972416146455576,-0.00725792603583744,0.186490510239893,-0.0154003053040334,0.0270347499572106,0.141778993738741,0.435218998749835
148,1208,0.577806226502729,0.0868523055678695,0.97228825823555,0.182548994762063,0.422342689386802,-0.0121084543500942,0.0285981965111641,0.074025571515168,0.361782369278574
149,1209,0.589656704676043,0.103183327500178,0.972213077393519,0.356822270024076,0.633767230860482,-0.0097425998990099,-0.022831658325252,0.0808341053395914,0.25810705807512
150,1210,0.601016934077723,0.118561616399659,0.972163643512251,0.490135665299641,0.793966659092076,-0.00693677281167076,0.0694849575877345,0.153531047394067,0.239201162171276
151,1211,0.611085691408073,0.132015385274759,0.972113145395164,0.580203027300284,0.895796618521336,-0.00573399429223818,-0.0398718740698523,0.281976334493541,0.133214320450432
152,1212,0.619480820631372,0.143209016276784,0.972048171704006,0.627133114090889,0.944794979393983,-0.00533672877869661,0.00783988073108,0.340456303745202,0.0499834665178176
153,1213,0.626218735589616,0.152187211994303,0.971948748492041,0.641754148516112,0.952094509360213,-0.00728253247809631,0.0434960934413006,0.306511107446406,-0.110788689372936
154,1214,0.631448175746131,0.159163062619702,0.971803936366282,0.629644269757462,0.92672487038308,-0.0098315600678874,0.0366241449806127,0.335424076051262,-0.169396861158203
155,1215,0.635335415989284,0.1644444039475,0.97161246139336,0.598042351935153,0.878512221644414,-0.0136720002776558,-0.0193698180863745,0.310464047662984,-0.269007163444496
156,1216,0.638069078814538,0.168352308703573,0.971374777120643,0.553598126623317,0.815074917595469,-0.0183499999315682,0.0103956597258221,0.320892048445763,-0.356412795881044
157,1217,0.639863392470912,0.171187493581125,0.971091318105446,0.500645902048218,0.743982038181115,-0.0233165895865266,-0.0478040972596025,0.350931367313098,-0.404469135044296
158,1218,0.640967379814497,0.173216291394482,0.970757245428407,0.445532749970777,0.671419777109513,-0.0292264793603572,-0.0744275641919392,0.400676756503765,-0.477562331137409
159,1219,0.641552705588427,0.174658846020613,0.9703748204591,0.388256883785886,0.600552885895913,-0.0344032843183804,0.0646187137204126,0.465161018100106,-0.477926178617427
160,1220,0.64181504341346,0.175689903692986,0.969941038809936,0.335577666434403,0.532396814190561,-0.0409565561179567,-0.0342112130162379,0.466091178754131,-0.570938808014151
161,1221,0.641859872767243,0.176452672066394,0.969459121872852,0.285249497092107,0.470507952798584,-0.0473407599715471,0.0104136785982678,0.386901445684965,-0.610916501149548
162,1222,0.641791404408617,0.177043361518301,0.968933301597151,0.239990611841345,0.413789385443773,-0.0541243031328388,-0.124906072502436,0.50097051844221,-0.657334862842572
163,1223,0.641662257942514,0.177587029730559,0.968367817003076,0.199353723687737,0.364028479589179,-0.0610753381815393,-0.083577685672426,0.438117444690101,-0.710409385101787
164,1224,0.641579530763165,0.178082972444818,0.967771804597199,0.166148159904176,0.32249346706594,-0.0674945756201849,-0.0948389967492993,0.486822667386512,-0.687029968706916
165,1225,0.641542756856613,0.17874555389358,0.9671429978419,0.137926285212231,0.290048144447655,-0.073422171656755,-0.0900901525480153,0.593028756199347,-0.682310165429921
166,1226,0.641601637110858,0.179545345698822,0.96649124382584,0.1150101033834,0.263917407309169,-0.0780877724078023,-0.0248084655619392,0.59797705095446,-0.602230725951961
167,1227,0.641800073261659,0.180505262005774,0.96582021386493,0.0995432470392048,0.242977660787998,-0.0824091870512898,0.102659451445671,0.52379514220403,-0.585062261296583
168,1228,0.642198879748327,0.181626358333728,0.965118739661882,0.0913436323158581,0.227691067680323,-0.0854830075985135,0.253443646638535,0.411442869845356,-0.385643692360031
169,1229,0.642755228981225,0.182980648619197,0.964420927125124,0.0857024053420793,0.217237804730926,-0.0859327397048255,-0.1723255325741,0.283390204892739,-0.0617747712297
170,1230,0.64346724114078,0.184518439664169,0.963749451391896,0.0850621231355034,0.20804990246077,-0.078617167764446,0.250869088295015,0.150157336892974,0.615725457079444
171,1231,0.644337473341853,0.186205409539208,0.963149490767554,0.0888892512895863,0.195996610311488,-0.0683476258756051,0.461357789651104,-0.00762153054694654,0.834964492977497
172,1232,0.645397886708916,0.187990184148797,0.962626021406781,0.0995181865196197,0.1858287405889,-0.0558447928285708,0.358267090663323,0.0197039802509744,1.14207057355709
173,1233,0.646635261069245,0.189879876017626,0.962201863653204,0.113001692265924,0.179898665241674,-0.0396091712226999,0.352928196303859,0.130715856335436,1.4983847633163
174,1234,0.648121498373459,0.19230843520148,0.963246873812924,0.130495661074827,0.190166208310677,-0.0133061327083524,0.387875600914845,0.270133613761583,1.72377142380807
175,1235,0.648871279107614,0.194078963634171,0.964421206952593,0.132196534590336,0.189769985185381,0.0129534615770185,0.352963480375453,0.390316253307283,1.81188787308767
176,1236,0.650035263940223,0.196805146464132,0.965315805968197,0.134771589168126,0.197147717217936,0.0299068813242944,0.336391082967611,0.0617840940619691,1.40736151549483
177,1237,0.650793217916754,0.198948651449701,0.966057671692876,0.131082215721263,0.197842156972077,0.0360752271284634,-0.0377410978162136,0.0802211062116123,0.770303192241393
178,1238,0.65159653048244,0.201199751177782,0.966692608311845,0.125633580235761,0.202252981270534,0.0341362670813432,-0.274031284634087,-0.0926424209573627,0.158898274176296
179,1239,0.652356003732906,0.203318876434984,0.96721677541696,0.119959575761806,0.208319493328338,0.0269502368869304,-0.399194470396674,0.0176480862603196,-0.293460677158014
180,1240,0.653154722104076,0.205526059589213,0.967631375475262,0.113412505107988,0.217251608768514,0.0198872004769634,-0.157498192605026,0.234147803751694,-0.373712271441767
181,1241,0.653998085924882,0.207770031736114,0.967952850704331,0.107818632668021,0.226186926652521,0.0130664320861798,-0.0100760907297923,0.460723446647415,-0.43046091964804
182,1242,0.654895924049126,0.210163141127158,0.968190660927801,0.103507076167163,0.236631788356099,0.0066930294116345,0.0665408400545881,0.448057904422251,-0.448369828992575
183,1243,0.655832801207302,0.212719056904646,0.968344755734518,0.103084661902934,0.248503996709668,-0.000986450430684293,-0.0548541646552113,0.354980568815231,-0.559088473028871
184,1244,0.656747173968165,0.215441693703765,0.968424195213419,0.100597385828989,0.260659910581193,-0.00805033522796829,-0.0611978245599403,0.224068032899581,-0.571254493273902
185,1245,0.657637236709717,0.218223279601136,0.968446104744132,0.0977608126266413,0.26959785770859,-0.0151806059893365,-0.121787938391909,0.0358997715656389,-0.616494621353992
186,1246,0.65847211119521,0.221136017150965,0.968401857453012,0.0943373447820622,0.272858693562988,-0.0203479087719137,-0.0877892982357589,-0.129681248188996,-0.443365575400839
187,1247,0.65923933116789,0.22403723722357,0.968334870955161,0.090652135290002,0.271900679226905,-0.0224204908767669,0.0629382347563593,-0.247947534486711,-0.199031989084621
188,1248,0.659899773499361,0.226792771335519,0.968263774945571,0.0880407144343996,0.266551293046211,-0.0231913537402218,0.131127984846212,-0.284433736114383,-0.0546292476847684
189,1249,0.660613390852218,0.229451356660732,0.968201100367443,0.0873348047280244,0.261785825924962,-0.0225212322060953,0.235313772341434,-0.192189749568921,0.0621616558403167
190,1250,0.661371085949801,0.231993710568461,0.968137640043888,0.0896942213506082,0.2580472494911,-0.0218170639001648,0.162076330595924,-0.130094337822667,0.0955972342356019
191,1251,0.66215387829472,0.234476628706826,0.96807424136613,0.0897587781774942,0.255597484391471,-0.0199474668939384,0.223690073843728,-0.161540904720336,0.179379257614368
192,1252,0.662905414717501,0.236880557731104,0.968033333697604,0.0845409983652103,0.252061930854386,-0.0170533679578141,0.194504151761519,-0.144308576643507,0.2155455234676
193,1253,0.663629357582798,0.239251118626557,0.968003832544445,0.0773385868132544,0.248327039439443,-0.0128447551087054,0.31529278924754,-0.126318425071923,0.317648219044153
194,1254,0.664265573345979,0.241587020210765,0.967978336697658,0.0659260707412439,0.244257127409704,-0.00634487414222791,0.0998284737235393,-0.0333011683383437,0.517267947616127
195,1255,0.664843016002759,0.243897202028033,0.968053324667569,0.0555258517738699,0.240425618525285,0.00168309335887472,-0.0406747845076675,0.106693690090999,0.660500391781387
196,1256,0.665312954302194,0.246170071654164,0.968163990585016,0.0490607837564471,0.234333532671618,0.00796875188131379,-0.0553129505360618,0.00914723640310608,0.608442657660793
197,1257,0.665788680278278,0.24840591680169,0.968296264443868,0.0475695017719655,0.228207096460381,0.011536624901549,-0.0999706382691106,-0.0031206051451931,0.480414093657043
198,1258,0.666317806028565,0.250628750351162,0.968435330072154,0.0525277289675702,0.223241298455274,0.0142147171568126,-0.186560977843897,0.0378122821688109,0.473879577730829
199,1259,0.666944008500467,0.25287924052841,0.968570558040923,0.0607959403028294,0.221197578955413,0.0160553760415859,-0.284556906721203,0.045085257152282,0.448310012372939
200,1260,0.667666695208656,0.255154752789909,0.968698437424131,0.0711420908126099,0.220166791573885,0.0174476848698746,-0.279408756971334,0.00235210974141177,0.439375744354905
201,1261,0.668475185753837,0.257451671411124,0.968823409076209,0.0792023697366154,0.221043635858461,0.019519476455063,-0.090193290326359,0.0568212888296404,0.457829674606276
202,1262,0.669376605647166,0.259774644834228,0.968939901241183,0.0860920687786858,0.223128155192252,0.0207193305574462,-0.101216303844008,0.0679738387467282,0.389917886828941
203,1263,0.670338912091197,0.262129040312173,0.96903934211202,0.0916469688983402,0.226823486190784,0.0206598440984282,-0.00299683203317774,0.105529577192232,0.264893660857287
204,1264,0.671337477686322,0.264523447452962,0.969109850179127,0.0966110619195459,0.231396097442455,0.0188832999679026,0.0980699539952101,0.013719226715265,0.11404462632399
205,1265,0.672353994800424,0.266907580248654,0.969143888994187,0.100753294635104,0.235420211894275,0.0154496996676547,0.203890280200935,-0.120259589511668,-0.0615220179081416
206,1266,0.673418194003011,0.269317691904615,0.969122689180693,0.104901260786504,0.237075373374896,0.00990145926475181,0.277887121351533,-0.209271613072591,-0.273473160442269
207,1267,0.674489205136538,0.271724781479695,0.969048038861313,0.108206122503883,0.238335189538983,0.00344068301657024,0.376923192384223,-0.302556724179781,-0.397075358669372
208,1268,0.675605414090255,0.274071706643366,0.968915302296299,0.113017118288143,0.236642641414328,-0.00421750386953062,0.373644653995692,-0.397462942646162,-0.521811331020369
209,1269,0.676732086590475,0.276352115231908,0.968731077149964,0.114837398001404,0.233041841124719,-0.0110211198595934,0.397140894691531,-0.34757139718044,-0.528472367271328
210,1270,0.677852878696277,0.278582953685418,0.968497874294272,0.11549709128629,0.229486593210844,-0.0178383243469774,0.244055610759005,-0.410205704778935,-0.547380410753827
211,1271,0.67891681581743,0.280784698949255,0.968223445001039,0.114515690163399,0.22569613459779,-0.0231544477522686,0.228604651612621,-0.468148407154834,-0.45461187832375
212,1272,0.679900083597931,0.28295524508284,0.967918892130564,0.112893033456636,0.221857000842711,-0.0276030007320122,0.108811457822353,-0.572104750007002,-0.365498991560428
213,1273,0.680776784136282,0.28508061293606,0.967601395886504,0.108810798756919,0.215810262447181,-0.0295596713237095,0.0665879496003183,-0.657818787168698,-0.177291118799693
214,1274,0.681563670532357,0.28713108739031,0.967291557119283,0.103652117916644,0.207066105390936,-0.028951688258999,0.1500508258321,-0.679493516814676,0.0280322542067861
215,1275,0.682278580882459,0.289155134538996,0.967000595449501,0.0974673326665603,0.200100418290801,-0.0268656426419304,0.0542085862840238,-0.664615444489353,0.172392818049038
216,1276,0.682943088771827,0.291211018178761,0.966723316259248,0.0935583889899524,0.196859793780568,-0.0238892133400005,-0.0988020531182174,-0.402440367044411,0.299273273644008
217,1277,0.683660849904883,0.293279186111899,0.966465371488965,0.091591857349484,0.191748218155257,-0.0211474857036497,-0.330726256028577,-0.505600184168759,0.373989399004353
218,1278,0.684436902168488,0.295360680534608,0.966237694788232,0.0924199053571068,0.188469130041198,-0.0158148541434622,-0.0835988961633578,-0.328406938001798,0.637407562389438
219,1279,0.685281114549596,0.297425864491937,0.966062236343214,0.0905159167283207,0.183425343411403,-0.00776090281546146,-0.150749143956262,-0.302503514855287,0.866354045639272
220,1280,0.686176279934344,0.29947175404262,0.965950146092811,0.0887137922906811,0.181159184358952,0.00125431160238109,-0.225266559559093,-0.190743187138709,0.981053341959309
221,1281,0.687169709978983,0.30153353687718,0.965890222781902,0.0911211148909563,0.18371560467407,0.00838165666542282,-0.344532975096364,-0.137521788992803,0.908128807766951
222,1282,0.688285028629216,0.303636713002571,0.965867555191305,0.0942462213337672,0.189714875631989,0.0138266645730337,-0.392285641795686,-0.0449559000540702,0.77628204270499
223,1283,0.689500524027994,0.305814988595308,0.965878427950615,0.0948608796767013,0.197291433485606,0.0191655110646697,-0.426300661855785,-0.040627364057071,0.726033605646107
224,1284,0.690784506856099,0.308032670506988,0.965926335386691,0.0948567177255974,0.202210493128067,0.0236293083460417,-0.316961234298606,-0.0396789830002583,0.605523955347874
225,1285,0.692111982578249,0.310327502221163,0.966011058212004,0.0976184053189154,0.207491780418364,0.0260743782511894,-0.339047991767906,-0.125220949171738,0.429567462475897
226,1286,0.693584447170867,0.312656817546312,0.966105155356235,0.103505032686021,0.21085924505946,0.0262253518159649,-0.319128800836629,-0.195490381029773,0.197751801355484
227,1287,0.695116289882213,0.315032098201516,0.966213578723521,0.109327156031783,0.21319786702685,0.0260650962498092,-0.190360139243418,-0.182170895073323,0.091826866238738
228,1288,0.696749853372813,0.317423498974472,0.966337169269656,0.117750595394267,0.213089668407529,0.0254436744393395,-0.020528272481032,-0.210814896990635,0.0126908945402506
229,1289,0.69847846917978,0.31985117778664,0.96647044252202,0.12655490193502,0.213673238829396,0.0252070441954681,0.00142220712333856,-0.252513111255007,0.00726325102062719
230,1290,0.70037435220188,0.322246795774925,0.966623952892799,0.137236119132276,0.212692372256739,0.0253755210128762,-0.0933387708691819,-0.280363841428319,0.0180869976659389
231,1291,0.702341214161738,0.324667797524994,0.966805762436689,0.144179092751731,0.214653824457454,0.0255564419245665,-0.155602389899764,-0.361869682510719,-0.0346821598976846
232,1292,0.70447248889615,0.32701435963227,0.967029664264711,0.154128186643876,0.216366742042323,0.0245265849696601,-0.399599033499394,-0.43255160822976,-0.14715607391921
233,1293,0.706766744651807,0.329204350785059,0.96729676595787,0.162568852163277,0.21531985874845,0.0232944574601079,-0.699633817514575,-0.440309495803988,-0.235817432030755
234,1294,0.709362987093871,0.330898489347921,0.967569914135856,0.17309026001105,0.204697610569472,0.0237749169820976,-0.648027866121026,-0.383849188883048,-0.160618059330308
235,1295,0.71232979414215,0.331841334345283,0.967761099978612,0.192649463796875,0.182439108828829,0.0245893742313935,-0.328967082179495,-0.570464064484206,-0.0185354325947192
236,1296,0.715440477364312,0.332162170554531,0.967787612944799,0.213640561375925,0.15525030376685,0.0212643111997984,-0.516580831270491,-0.56254678787336,-0.11536168209928
237,1297,0.718357372888142,0.332116371441997,0.967646396632063,0.22638811636934,0.124012314962986,0.0181348525271881,-0.455177015722642,-0.640376741369199,-0.0243692841062203
238,1298,0.72087676303016,0.331886270081508,0.9673906775274,0.228306310960474,0.0938536604098837,0.014848106551561,-0.216069507097368,-0.462308701663005,-0.0452986205944265
239,1299,0.72301452062903,0.331641151845817,0.967053358214318,0.225953425781763,0.0657682458473073,0.00827366791756712,-0.354914078490655,-0.819599531832383,-0.17851957031472
240,1300,0.724796422432898,0.33140875625631,0.966655725831478,0.219031366413402,0.0413490690170714,-0.000449098983693581,-0.415922059511846,-0.864690840159796,-0.39808401253548
241,1301,0.726164660128791,0.33118334237734,0.966240084776223,0.19907991276081,0.019971490589873,-0.0037037194249267,-0.236044088294241,-0.544342675412793,-0.119151010541608
242,1302,0.727243342197654,0.33101127045933,0.965830606528756,0.179947987124055,0.00284541557844855,-0.00829996384557324,-0.10419460220281,-0.572512507034676,-0.22464468249718
243,1303,0.728093406111686,0.330959819130451,0.965426804964334,0.162398785082678,-0.00728754766806876,-0.0128349599791826,0.137244500908433,-0.644836969470554,-0.276248575557341
244,1304,0.728824438021432,0.331100660361664,0.965008053591039,0.150610171996603,-0.00932815656051452,-0.0215602893770592,0.0950431577428206,-0.5861245573586,-0.581010655127578
245,1305,0.729481668632987,0.331439789583152,0.964562747916678,0.141896256002961,-0.00676694735251437,-0.031525413519924,0.243875162081665,-0.643731497493354,-0.736345656396968
246,1306,0.730042026785152,0.332069425823199,0.964110538946385,0.130813498621659,-0.00284025993385167,-0.0383517609052394,0.391317487010053,-0.464795291423391,-0.656195632063385
247,1307,0.730613704878422,0.332795977194923,0.963653249627736,0.12341114858016,0.00146632422904409,-0.0449049649863517,0.641702829106806,-0.612535281869264,-0.684400140591049
248,1308,0.731113787838219,0.333623770751611,0.963201748687446,0.11837619003865,0.00731058139545141,-0.0518355192360062,0.808481264711287,-0.682694138841275,-0.800805110162697
249,1309,0.731503067908188,0.334500453625653,0.962763657513047,0.109701717794873,0.0113105065318956,-0.05789716597399,0.816314373920525,-0.445040678894353,-0.925320963988137
250,1310,0.73180564167685,0.335362295275235,0.962319453795412,0.103074375353979,0.0117205211216349,-0.066807524800725,0.677028228999823,-0.37515403058214,-1.21560809731983
251,1311,0.732051814259324,0.336148241236268,0.961845879781195,0.100912491342419,0.00909004653461149,-0.0785375497511154,0.813212665231378,-0.420793653850194,-1.48366945249503
252,1312,0.732262685269087,0.336815617288766,0.961330784142373,0.0980502097110138,0.00487113679422661,-0.0925392631448803,0.842511469761773,-0.4440302470087,-1.77760066711143
253,1313,0.732443581681111,0.337335935423118,0.960765689970006,0.0945063138627109,-0.00122543623707593,-0.107469759131123,0.836641771022136,-0.440780223959146,-1.93731685653198
254,1314,0.732563080640938,0.337695092735953,0.960155589047073,0.0868177898286468,-0.0105232349045155,-0.12199552591145,0.608229500451863,-0.460675172901453,-2.00442108675675
255,1315,0.732598566645063,0.337882855966972,0.959513913652694,0.0746201510540433,-0.0216036529209968,-0.134646895386802,0.377653905814665,-0.556844668544976,-1.88862263923832
256,1316,0.73257818410672,0.337862361472169,0.958821549206897,0.0591482384085479,-0.0388006475676464,-0.144059803366606,-0.726266436634105,-1.26105278894916,-1.31419829162986
257,1317,0.732499686090511,0.337398270034564,0.958214492991252,0.0148571599907066,-0.0818053757893751,-0.125153519945011,-4.74248358127355,-4.17769062610661,2.4830801809922
258,1318,0.731709209060981,0.336006324968531,0.958205879098083,-0.0707099145004973,-0.113401864373784,-0.0590202210489758,-0.0948652065820665,-0.293156307760115,3.70465751665951
259,1319,0.731551535023331,0.334596009731638,0.958439386256194,-0.0282697069866929,-0.108243599053454,-0.0283721580679998,3.39411193242402,0.66379868304949,1.58027717798435
260,1320,0.732744060057605,0.333949801390979,0.958550201965638,0.0590453096809936,-0.0623886079531992,-0.0514135668851675,-1.96097167218767,-0.531662134880404,-0.882475787941002
261,1321,0.733226431636786,0.333523092088323,0.958757554592986,0.0379963178532416,-0.0101322414895264,-0.0132473904317126,0.703915760561383,4.21971537424698,2.32419893829386
262,1322,0.734046501975415,0.333228347939112,0.959087137373634,0.0154228431715679,-0.00766998219739137,-0.00957379946284941,-1.64733113322782,-0.100060701539137,0.375782175758136
263,1323,0.734991421246319,0.333004619221246,0.959335888343404,0.0232275591957156,-0.0164318750797029,-0.0203290991954442,-0.718028200607185,-2.8869363099703,-0.993262043129579
264,1324,0.735858441199363,0.332713149688366,0.959467428054983,0.0362682061539135,-0.0310922247660366,-0.0369802991470084,-0.0704288941852284,-1.4813390729146,-1.91291561174449
265,1325,0.736500956651819,0.332306102595472,0.959531833293885,0.0351674761428437,-0.0608060801388037,-0.0403686397673304,0.995661538710575,-0.360021852288398,-1.00314396814212
266,1326,0.736472060461315,0.331734401051945,0.959676846017381,0.0180436281883359,-0.0770408856303102,-0.0188229523585667,3.01772019934841,0.894596052420544,0.887246948925755
267,1327,0.736176047721,0.330970673018133,0.959943886859341,0.00783486838436649,-0.0830373675372337,-0.00458198634262818,2.08633293169964,-0.0290125322232317,0.72271841062479
268,1328,0.736170990096413,0.330284573107202,0.961939354500161,0.0244514546093202,-0.0706013893885788,0.00933153126576035,0.192359435418255,-0.267164503903114,0.283923530037299
269,1329,0.740760582385196,0.330727836124076,0.963659602576291,0.0942578578758619,-0.0449576188247717,0.0207827611484629,-0.889777378020213,-0.116237247796992,0.441661747280198
270,1330,0.74249348570806,0.330461452298274,0.964876279737291,0.120415560090851,-0.0314784883664205,0.0297983571866241,-1.58603606686627,-0.404106615288452,0.438798197451468
271,1331,0.745202099177764,0.330375658286565,0.965819972278999,0.142832934567897,-0.0175434687311746,0.0311424432124836,-1.70833427090375,0.134387033056477,0.0150261844468952
272,1332,0.746717994170792,0.330118669150517,0.966568031689489,0.145397552945164,-0.0101040782524434,0.0265203108861671,-1.66624980688214,0.270141784364828,-0.33116323516285
273,1333,0.748004267452307,0.329830422065411,0.967172990184066,0.141335798348429,-0.00855138674202873,0.0222165499072866,-1.21431979639645,-0.0625549416886961,-0.359048724170822
274,1334,0.74884846004428,0.329359199564777,0.967681744964258,0.128864948725319,-0.0141689291345575,0.0191948752469986,-0.692460118413245,-0.315418113368119,-0.312208504756652
275,1335,0.749515587259353,0.328726214217064,0.968132040288747,0.111019061788686,-0.0258977253838775,0.0182282702298536,-0.613751928714956,-0.21217524935991,-0.171223551794072
276,1336,0.749767104038503,0.328052902195071,0.968551439513371,0.0868858670792935,-0.0401660868855388,0.0175777901126527,-0.785519142260863,0.145108603447497,-0.136650062983105
277,1337,0.749685744260714,0.327413509605554,0.968964514377704,0.063234907795078,-0.0520092293738008,0.0199070674991065,-0.230339306626701,0.385020946785984,0.0812188691713622
278,1338,0.749405207298489,0.326786292650227,0.969393252349713,0.0462041644648085,-0.0621772712685046,0.0251077540191126,0.375539557915369,0.450415900230986,0.350480841445981
279,1339,0.749090075269589,0.326143832496168,0.969843536758771,0.0358062956247829,-0.0678329014335622,0.0302798135447209,0.424770727910999,0.294831590189603,0.452596372786853
280,1340,0.748859300923087,0.325486471812614,0.970297416674105,0.0337389982844708,-0.067876712008374,0.0336210479679109,0.200547076160489,0.212491169478984,0.445573602441981
281,1341,0.748758181310248,0.324882540774448,0.970736117118704,0.035872755642774,-0.063770952968168,0.0354183114761401,-0.0221942528172633,0.0646056347692309,0.396801286875235
282,1342,0.748828893597123,0.324305595838337,0.971149179278232,0.0403348159148557,-0.0590808878082375,0.0365897097545034,0.0919089605091439,0.045143570789975,0.36083309877551
283,1343,0.749062727126399,0.323764822719898,0.971533274792003,0.0431622869857742,-0.054556002364207,0.0372237029236588,0.127070133673425,0.113748782704072,0.296384782156682
284,1344,0.749451152999048,0.323241885729726,0.97188214097664,0.0468814248606437,-0.051148975973092,0.0365539814392546,0.107854593939891,0.173061257157506,0.197345996002202
285,1345,0.749903550658474,0.322706329062906,0.972202312702176,0.0486341803418204,-0.0482255730846597,0.0364682759196229,0.198498075797769,0.176883506825878,0.213019502297826
286,1346,0.750407625577247,0.32227169442059,0.972491750298492,0.048790787203107,-0.045738198315077,0.0363023051523537,0.260762223078225,0.0276784362962252,0.193420084453267
287,1347,0.750864173487323,0.321877408670246,0.97275942656017,0.0475018846260286,-0.043902608998269,0.0356474988817615,0.194838407072855,0.0599480856991315,0.154629840180008
288,1348,0.751243129442146,0.321512977072208,0.973005907359923,0.0458468032598341,-0.0422877215963247,0.0338764518514986,0.195039398708709,0.0050644371813136,0.0594168451264184
289,1349,0.751577555546376,0.321143566933342,0.973227130656978,0.0460179953917485,-0.0415513891933729,0.0308131074086083,0.215826475330715,0.0162825183420672,-0.044880488313731
290,1350,0.751871272129869,0.320792850494021,0.973420026503737,0.0458066405390578,-0.0400442057783435,0.0270741766105864,0.31865419168476,0.023503132915828,-0.124385253206764
291,1351,0.752174261895005,0.320422829399149,0.973586864616687,0.0461647520262358,-0.0390347125060859,0.0237621608975709,0.434359689918748,0.044394260805229,-0.114820141443715
292,1352,0.752535169681702,0.320059459767937,0.973733003148645,0.0481739832733736,-0.0370052981782309,0.0211163212958058,0.522211173501186,0.138338353680115,-0.0832939493898921
293,1353,0.753028031749515,0.319680955555827,0.973856220066299,0.053399983803151,-0.034404068948076,0.0179590676842079,0.491207474204403,0.195573704678318,-0.108878550288998
294,1354,0.75367565605553,0.319285750337018,0.973959058620235,0.0595496868114008,-0.0316618566315584,0.0157334414175435,0.42888088654202,0.311767060363593,-0.0525539859360103
295,1355,0.754452842987421,0.318871302533788,0.974048505766625,0.0648946322436997,-0.028813606611118,0.0142837202402527,0.366925248315782,0.389064187999377,-0.00809595049452074
296,1356,0.755291391945477,0.318456136904795,0.97413220097018,0.0690648363466745,-0.0263225184431946,0.0133128134747978,0.271862966062272,0.355168199112512,0.019736238855612
297,1357,0.756167592859673,0.3180353202244,0.974207320737502,0.0732414506035537,-0.0252604081556394,0.0116865949898304,0.101940146651134,0.223138895389151,-0.0147825325892116
298,1358,0.7570458811415,0.317628993340033,0.974271308304131,0.0766912687795375,-0.024293264362913,0.00959992882287991,0.100684389283583,0.123820337499551,-0.0658105879886936
299,1359,0.757918766237771,0.317212938509742,0.974324366446503,0.0792005638215349,-0.0253468903664126,0.00749658027519616,0.129072655350008,0.0601871188963729,-0.0969962396354141
300,1360,0.758786052255131,0.316817892025539,0.974363789468398,0.0816088269498293,-0.0262996495922067,0.0046960933720277,0.109025073473326,0.0455006667422787,-0.176747341289951
301,1361,0.759678421433043,0.31643463102843,0.974384236367926,0.0849301109364243,-0.0270714809834418,0.0014048133657494,0.0827619400806147,0.0867229159998094,-0.237729109878655
302,1362,0.760569130669956,0.316060139819294,0.974390558399553,0.086262647522621,-0.0289924744532222,-0.00126624743828287,0.089023806066908,0.0853975709870048,-0.228598798982661
303,1363,0.761454428083983,0.315694204797565,0.974385386627182,0.0874872150288166,-0.0304294616626064,-0.00458635741052494,0.0452482786358525,0.100492078408027,-0.295099683723712
304,1364,0.762328919699121,0.315340338278044,0.974369988898526,0.090141560742884,-0.0325957356311524,-0.00774812950798712,-0.043862485286489,0.0580126154118932,-0.282970549211616
305,1365,0.763141509076357,0.314982066649483,0.974352661810477,0.0932691045994579,-0.0326687589044315,-0.0109088158019635,-0.0188236355343458,0.058671506401205,-0.292462846777189
306,1366,0.763962617483886,0.314691271473833,0.974331401037044,0.095108587948354,-0.0318881102833017,-0.0130679975002424,-0.0921635015835379,0.0700497983265583,-0.2307588582279
307,1367,0.764770084329122,0.314434053835314,0.974316014447046,0.0968630719153988,-0.0310167929478258,-0.0145614535870288,-0.0273920087603875,0.0341954533869989,-0.19569920058567
308,1368,0.765584126171002,0.314200575314139,0.974311320138212,0.0978233999199533,-0.0292327505576929,-0.0147264847091965,0.056902549282894,-0.0150092228511455,-0.114730345296509
309,1369,0.766421700644683,0.313979265196193,0.974322064608521,0.0974287250236449,-0.0273434152360197,-0.0133848008342614,0.0897315015773081,-0.0513341044336869,-0.012242135473552
310,1370,0.767293475824078,0.313773036573097,0.974350159607879,0.0961068328777492,-0.0244987430210966,-0.0111477492993613,0.0560435802843918,-0.0300293985127984,0.068558230047746
311,1371,0.768232965536479,0.313584654427569,0.974394911735149,0.096931895746731,-0.0201272806944211,-0.00778946604006128,0.107949327118374,0.039957432530185,0.185127371109818
312,1372,0.769238218015868,0.313399515111131,0.974457832891275,0.0973836207879965,-0.0169609346012369,-0.00324646485514477,0.0767836076108931,0.0877260825023487,0.308004833228696
313,1373,0.770294729100908,0.313227449034632,0.974533504234767,0.0992802084214425,-0.014046848122266,0.000823089525847972,0.0269380075488551,-0.0073883852557996,0.330135990779186
314,1374,0.771385241985813,0.313045096108122,0.97461888303907,0.101382644318587,-0.0127444715224776,0.0052684932947465,0.0281948965511261,-0.0628242021232524,0.391472132811529
315,1375,0.77251821002604,0.312839630688334,0.974708056964476,0.105009072262852,-0.0135320067401784,0.00936384677271361,0.0888289511939402,-0.144885334049387,0.414040596816956
316,1376,0.773704915899823,0.312612373843796,0.974793540347708,0.109645073239613,-0.0146152583067662,0.0129225064870286,0.115731629438635,-0.13436770933736,0.412482532964109
317,1377,0.774930447450867,0.31237872525344,0.974867261227855,0.114036762146452,-0.0153487469054037,0.0152284405388405,0.0232094224811469,-0.120610699710306,0.3556717616696
318,1378,0.776193059026212,0.312146911359466,0.974917852907343,0.119985640242605,-0.0157957475674159,0.015420368710717,-0.0148697601693162,-0.0670127142934571,0.225689977743828
319,1379,0.777464322027168,0.31193601519697,0.974940353217826,0.123367283042888,-0.0149673511455215,0.0148672266057514,0.012489407576009,-0.0784619273942274,0.149449721130782
320,1380,0.77875890266337,0.311730479803964,0.974925985622966,0.127065372721698,-0.0153660562551109,0.0123121125988482,-0.0626541379044276,0.0428944564599088,0.00808731008658481
321,1381,0.780057007328393,0.311540603846356,0.974874622433152,0.128195238076608,-0.0151499790692217,0.00921871890644062,-0.107267078297719,0.121579456807564,-0.0696021430143997
322,1382,0.781365958424786,0.311370262778938,0.974784955523344,0.129023836673879,-0.0143375285248802,0.00509412667021838,-0.15517831802586,0.11064926755785,-0.158273536142409
323,1383,0.782676439367663,0.311213355905108,0.974657745697822,0.130054686444751,-0.0134860164426411,-0.000208067701170469,-0.150141834348296,0.161122851428683,-0.275582835142174
324,1384,0.783968320157673,0.311132276832268,0.974510537620093,0.130263124598107,-0.0111145741903171,-0.00481004246662269,-0.146058772375347,0.143502862469322,-0.288420897568922
325,1385,0.785218648012798,0.31094192841358,0.97435130556529,0.129403508928038,-0.0123413192654223,-0.00881320533378134,-0.0659382932972033,0.154723255229405,-0.287138622658722
326,1386,0.786361707873079,0.310728073027283,0.974196114908907,0.127103887590712,-0.0125910735173557,-0.0124897230246341,-0.0589703560762612,0.22228467537634,-0.305099259007412
327,1387,0.787450071527099,0.310532163864991,0.974040174402061,0.124059598220708,-0.013120760555327,-0.0154637633943766,-0.123660306613746,0.262355635733564,-0.27407533115881
328,1388,0.788443945646155,0.310344247887329,0.9738947222073,0.119270576923927,-0.0135926176987439,-0.016849373420736,-0.00362517613706414,0.299528860733993,-0.206019334956987
329,1389,0.78939421027806,0.310160462750465,0.973757738908407,0.115625085355769,-0.0134172940606157,-0.0173181199622543,0.0775891268880411,0.24284686182033,-0.1263477153669
330,1390,0.790308180116731,0.309971799701494,0.973633149830768,0.112707689564873,-0.0132703978669807,-0.0168719955656441,0.201363398212644,0.267992103219274,-0.0623646854813137
331,1391,0.791187311232257,0.309781238163877,0.973524097288664,0.109691509997249,-0.0137280780321227,-0.0154800857033001,0.202851999851456,0.248225436709545,0.0357412598461181
332,1392,0.792044643204098,0.309601756374774,0.973434420133705,0.106880162241269,-0.0132645450762791,-0.0126316330717846,0.238539075502424,0.249426834365447,0.172790835475016
333,1393,0.792889463930571,0.309440049933856,0.973369120582543,0.103600463701892,-0.0125173452052228,-0.00911030061518619,0.187158394791382,0.250367831172865,0.25433787573267
334,1394,0.793710943968281,0.309298337348218,0.973335701584682,0.0995302980465823,-0.0111723788942908,-0.00472767570279544,0.27555992433983,0.251013446484468,0.322765096832276
335,1395,0.794516861037475,0.309160330947573,0.973335728720696,0.0958170616896492,-0.0110681876988577,-0.000560411637220202,0.293196467877533,0.188270942934322,0.317745605249728
336,1396,0.795334913871503,0.309024599950499,0.973361815938714,0.093818978477835,-0.0101076894646857,0.0026041639837059,0.244885095779813,0.18987755979221,0.265035646124865
337,1397,0.796179516170411,0.308915429961104,0.973402889450048,0.0934986473893618,-0.00846782392295629,0.00459464211398602,0.103334835639729,0.143583160042231,0.199365537620921
338,1398,0.797051483326154,0.308832568749765,0.97345769703966,0.093849090368008,-0.00786185147070026,0.00721703412798822,0.170857559700221,0.173054656887956,0.229369463950607
339,1399,0.797963330784419,0.308773230369309,0.973528367492357,0.0950192269014425,-0.0076022812034953,0.00995117021918062,0.25230219175308,0.152515784663598,0.226916032056643
340,1400,0.798931108855177,0.308714058121955,0.973613028915277,0.097353239721326,-0.00745564764979907,0.0118998588171434,0.259211873091381,0.210267578107717,0.155428615555494
341,1401,0.799948127598981,0.308655018977078,0.973708571492763,0.0994361607547516,-0.00661463872862701,0.0134779286169323,0.298494459335025,0.242698740522083,0.094411583032292
342,1402,0.801002892554353,0.308569003479322,0.973815597947906,0.100205726405987,-0.00671844342387499,0.0152212628072032,0.300150768391873,0.368540500796935,0.0692807299036046
343,1403,0.802091753934856,0.308475309819389,0.973925839252247,0.101699191367805,-0.00558941947736321,0.0150541219055566,0.263712957430851,0.393001965802431,-0.0811953077775838
344,1404,0.803219719525924,0.30839932030264,0.974029184992654,0.103539662392373,-0.00220466670700431,0.0139795491346306,0.181571223110678,0.491563685310596,-0.160956944044562
345,1405,0.804341597010372,0.308297038928782,0.974130119895316,0.104548478959589,0.000836741253353846,0.012713961414296,0.127150155049497,0.567792996178497,-0.206130964848058
346,1406,0.805486849633604,0.308357650840145,0.974232562655724,0.104845434980969,0.00499587408121203,0.0115432568680753,0.0681652991096219,0.575534470955203,-0.25477301909698
347,1407,0.806640539888667,0.308354738215006,0.974334100230174,0.104917744363859,0.00801134936252459,0.00995259248480071,-0.0228887200913507,0.552539150988292,-0.296623680013589
348,1408,0.807783216739267,0.30843935307312,0.974431563333203,0.104312292450305,0.0118017202731045,0.00808495558769833,-0.0451715056181075,0.441556650791211,-0.339480991554094
349,1409,0.808895285490403,0.308513383849079,0.974521753803941,0.103278548729926,0.0153531558116223,0.00614756057730242,0.0479690176473699,0.290622736933384,-0.372754293046819
350,1410,0.809974113239291,0.308624404535882,0.974602392908753,0.102413440841938,0.0181481986877914,0.00497531009965188,0.133323834701683,0.344924848760539,-0.322350278998245
351,1411,0.811021657445186,0.308734949699582,0.974674065208302,0.101546305147649,0.0207095291161113,0.00439583344309648,0.181777510550881,0.310704782035526,-0.272719049772896
352,1412,0.812006194594542,0.308842946623633,0.974738430201821,0.0994119210758501,0.0221154198266996,0.00457939670936037,0.19047079073927,0.319331322932619,-0.208717347949975
353,1413,0.812892309738783,0.308968661228544,0.974796562887116,0.0970194915696047,0.0242165826152111,0.00539898336111788,0.246043188832889,0.388504125561869,-0.125743182463783
354,1414,0.813649800989653,0.309105110199124,0.974850868736048,0.0923064691996541,0.02567357201003,0.00754225325741946,0.206913015888742,0.486613623189691,0.0114020181216813
355,1415,0.814190388715802,0.309213811041079,0.974909743608723,0.0824624087513198,0.0251786171171608,0.0101196003501331,0.0530044262621315,0.501870747515879,0.0779022842371179
356,1416,0.81445228741998,0.309282800754865,0.974973290829775,0.0691067609080981,0.0237457051313858,0.0123917926303512,0.00841016860426437,0.398851358409567,0.0927754617856662
357,1417,0.814434990973813,0.309254300466181,0.975035836337989,0.0542953114285157,0.0205239111196448,0.0136277978809064,0.0157779477262619,0.273523838801336,0.0555669320225384
358,1418,0.814186842173448,0.30907600450838,0.975081856474168,0.0397504392803914,0.0154721070805801,0.0129461235503691,-0.00847181337605999,0.263643023659518,-0.0420422843680102
359,1419,0.813715626413884,0.308722346599195,0.97510438394644,0.0229514762939642,0.00791040305125707,0.0122004674238774,0.100641702657193,0.293187999526664,-0.0672610815466459
360,1420,0.813070401948401,0.308188580997799,0.975088943064631,0.00781561567365732,-0.000974888679462145,0.00974875525773249,-0.000562965421132973,0.298429372799697,-0.13477110980411
361,1421,0.812239695057395,0.307471923509027,0.975033565709984,-0.00862546704138013,-0.0124015790089871,0.00754264169548248,-0.0418700990387698,0.351710805972112,-0.109891781247439
362,1422,0.81121106627346,0.306573301511167,0.974944093416385,-0.0259307309801288,-0.0251628046787698,0.00584521616238425,0.0284248504269091,0.391592168013291,-0.0685418522216766
363,1423,0.809974437336589,0.305491871832729,0.974827665152263,-0.0448071823763343,-0.039651072522978,0.00469436531346614,0.022766755083437,0.428984101125109,-0.0180913695318847
364,1424,0.808514763228975,0.304239484047961,0.974688210644247,-0.063713803997145,-0.0545654630244654,0.00307740701864783,0.0418290559199643,0.398965738746787,-0.0261687818944684
365,1425,0.806836429845525,0.302832814694613,0.974531414998847,-0.0817204467077213,-0.0688130524027766,0.000997845301530025,0.0891049444908076,0.402653319719161,-0.0438871108373362
366,1426,0.804911864507926,0.301268325384897,0.974398660911161,-0.100645013836133,-0.0821327075206163,-0.000860214256614321,0.0962112947043009,0.380266068815263,-0.0331508887906785
367,1427,0.802772802260961,0.299638277271742,0.974260453865984,-0.120037013388598,-0.0946607481801715,-0.00295449596542393,0.120966784259979,0.42764031948163,-0.0551164411150255
368,1428,0.800390911406997,0.297951602815286,0.9741059707259,-0.140556359716485,-0.105064953680677,-0.0054931504362147,0.0641139034832558,0.345213003674493,-0.083484660978572
369,1429,0.797789857352614,0.296233868385261,0.973929373338306,-0.161342537538443,-0.112926787326063,-0.00784720881755894,0.19188042680724,0.329867220533327,-0.0873055389494508
370,1430,0.795043250220925,0.294509395205067,0.973723887320238,-0.179836191625817,-0.119175811710265,-0.0104764220525374,0.158301882744685,0.328671146000753,-0.0918839730880271
371,1431,0.792196572231051,0.292813696943487,0.97349386159973,-0.197517808530765,-0.123042467707697,-0.0116112088799562,0.191617229873817,0.355668284809433,0.010358771641979
372,1432,0.789466299812305,0.291362421616159,0.973193249321835,-0.208476606162725,-0.121943448994932,-0.0131353952152681,0.10946618285753,0.39028210832697,0.0127161499347494
373,1433,0.786611409048278,0.28970350188183,0.972923170173964,-0.219666059549967,-0.123793576306648,-0.0135383206955543,0.104988943397836,0.365358511309512,0.0856925126221001
374,1434,0.783893678396008,0.288190051428324,0.972679375957109,-0.227546467028202,-0.123860953559515,-0.0132979401984652,0.105870580062026,0.412578241749279,0.127576724048274
375,1435,0.781220551134886,0.28658646555288,0.972447239989699,-0.232262948787109,-0.124613443478048,-0.0136778834046729,0.0913076799446133,0.345337218538648,0.0833974870734275
376,1436,0.778670525503218,0.284998934836397,0.972213990587818,-0.234904067878037,-0.125665109329201,-0.0140572462585394,0.101916680604362,0.373378353662245,0.0736221095899998
377,1437,0.776193910359313,0.283366628176012,0.971970170971163,-0.236814012483698,-0.12700298555217,-0.015371223864914,0.0799923026223509,0.348546601034605,-0.0031044972939709
378,1438,0.773819746192613,0.281737664133045,0.97170344365417,-0.235894153161605,-0.128351516704783,-0.0177002148821099,0.0602778097391267,0.366352246831809,-0.0616479511354217
379,1439,0.771545958211067,0.280111212432201,0.971410567742519,-0.233112336476059,-0.12969518390297,-0.0195161936717691,0.108962754360763,0.443609040293917,-0.0185672807570976
380,1440,0.76959226632813,0.278820268393154,0.97117894208463,-0.225842012124742,-0.126385252116195,-0.018802932314603,0.13195842444243,0.429848137127938,0.0231639118127131
381,1441,0.76748629685694,0.27727703228259,0.971004695589205,-0.220654796302914,-0.127123042762506,-0.0184775003702143,0.0997977518186274,0.454803020088333,-0.00158477297782317
382,1442,0.765589978326335,0.276029150203961,0.970894265243684,-0.213604424111176,-0.124294717166969,-0.0172042255945711,0.136947316929923,0.411614464615031,0.0207748167249682
383,1443,0.763699703885392,0.274737641967071,0.970831007364151,-0.206144517201123,-0.12260260439127,-0.0158335013446693,0.157144927895937,0.39742070814948,0.00703962818144355
384,1444,0.761959531570224,0.273571826585197,0.970795975574235,-0.19861063000161,-0.119649257981213,-0.0137926595928683,0.138628842969287,0.396015657672431,0.0329827083349314
385,1445,0.760261706495762,0.272390429701535,0.970781472653277,-0.192029811357511,-0.116009039228686,-0.0108362793242977,0.103555069191034,0.484302108699069,0.109033447823426
386,1446,0.758732061989409,0.271336339487244,0.970764135548666,-0.18303182934453,-0.110423672466394,-0.00862256761477125,-0.002637825329504,0.486630243980815,0.093840713619917
387,1447,0.757347336945787,0.270352305584032,0.970731699830816,-0.172214793808141,-0.103355137771899,-0.00718651298612092,-0.0589028067752103,0.417429327545131,0.0682227729771409
388,1448,0.756104814503099,0.269420010089996,0.970680556918413,-0.161111478837257,-0.0976301200504952,-0.00579383684875299,-0.0966153204968737,0.304635842223766,0.0985096262719145
389,1449,0.754941857772174,0.268524148242659,0.970644203395388,-0.152951382446457,-0.0912738558407637,-0.00383002232404974,-0.0927195013168718,0.294284028992914,0.144075826530169
390,1450,0.753837669187113,0.267683239735043,0.970635356524064,-0.145066732153922,-0.0854526714042145,-0.00109891788579487,0.0204879729373924,0.307496141265826,0.220743967516272
391,1451,0.752795177958897,0.266916690218772,0.970645775906901,-0.136991663079108,-0.0789848206285679,0.00167658828509799,0.0926163031576194,0.19972204288677,0.25108444532473
392,1452,0.751840907673007,0.266244332878814,0.970663120572238,-0.127712136309493,-0.0701167250257654,0.00307390484054837,-0.116824294277355,0.27806901887529,0.191266649431536
393,1453,0.750964247349804,0.265666562886251,0.970684388950834,-0.119062223055843,-0.0614436383182679,0.00477861732107422,-0.0873795764771719,0.322121409324397,0.21986333925755
394,1454,0.750175938399813,0.265199048857037,0.970706032565716,-0.109615809805797,-0.0517538063672977,0.00512802552750439,-0.155077919520611,0.280577066920866,0.135792124438087
395,1455,0.749472643463765,0.264848444965223,0.970722009635646,-0.0992394691649683,-0.0423881865523247,0.00473417502746699,-0.121711803791692,0.318709017681388,0.0807609429400919
396,1456,0.748831355527688,0.264651482030056,0.970730455239831,-0.089846293497413,-0.0321525046036558,0.00384152080754442,-0.199933538457552,0.35035471663762,0.0440809249865102
397,1457,0.74823455072062,0.264619144034355,0.9707313511037,-0.0815868082164437,-0.0214347932751682,0.00284576046297563,-0.196075626671168,0.365571802260287,0.0349692966863804
398,1458,0.747730130229961,0.264758886674445,0.970722558241202,-0.0718561220142249,-0.0118822395933649,0.00110016552334233,-0.227467214551151,0.309262929346749,-0.0195404597983494
399,1459,0.747328324859952,0.265124890555216,0.970703363504156,-0.062999056858637,-0.00105039637302329,-0.000562649227254196,-0.180092535518057,0.329439628485492,-0.0312677458769401
400,1460,0.747070551341977,0.265710342903475,0.970678857099145,-0.0539620246053451,0.0119499262209164,-0.00234160308935614,-0.0879312849108067,0.253476092547698,-0.0709166866915924
401,1461,0.746965149074936,0.266510564323145,0.970649227256964,-0.0451222279644144,0.0264211954546037,-0.00446531108276215,-0.0325854024405399,0.260246588869966,-0.134992381364049
402,1462,0.747017353567699,0.267541192554533,0.970613226097454,-0.0352220712233847,0.0434998113516302,-0.00752309948284295,0.0239300737149762,0.260512362532855,-0.240449480290311
403,1463,0.747174650075699,0.268736673853258,0.970574991269946,-0.0265294851358428,0.0607618758157841,-0.0106154792643477,0.0291034471632296,0.192640557319517,-0.299908066180593
404,1464,0.747458662677639,0.270203141728196,0.970529095641605,-0.017794067223466,0.0780758024204146,-0.0146674926050533,0.0686301233693888,0.106703176002164,-0.419100289177013
405,1465,0.747832686240426,0.271887590086374,0.97047940939351,-0.00953883674656187,0.0956176904286706,-0.0186618417591238,0.0545070117744774,0.0865699327175916,-0.469118406575653
406,1466,0.748290390905143,0.273872395404985,0.970519422955354,-0.00418764035767146,0.112799040607775,-0.0231571769991656,0.0742859765952387,0.127534481092913,-0.504414341968393
407,1467,0.748755862084925,0.275976795207445,0.970469319608795,0.00153724216425473,0.129724235909186,-0.0266505345457333,0.00645203403739573,0.0916188756434366,-0.558250464532917
408,1468,0.749205449840864,0.278308761274223,0.970442883019783,0.00549090793710229,0.15129482974607,-0.0275875487794988,0.03061317258288,0.294056050528389,-0.541066013530517
409,1469,0.749625701208673,0.280953191794033,0.970444183556647,0.00831723668297405,0.174820173427342,-0.0292581056690023,-0.06331334837494,0.387685323357874,-0.639227122681949
410,1470,0.749984307889092,0.283973824820161,0.970459790135688,0.00878853834504262,0.200605278952901,-0.0310817280227149,-0.0570386309416156,0.376174821431429,-0.651130395397496
411,1471,0.750446361866689,0.287622913339864,0.970461662574126,0.011230215489605,0.231541802293131,-0.0333874861955738,0.0780257827880908,0.350837753750271,-0.591251752185726
412,1472,0.751380655870874,0.292141532642178,0.96960427381331,0.0194316408743867,0.270450447598218,-0.0366139719501528,-0.363289561566526,0.392515896732565,-0.186723657389145
413,1473,0.753791060220843,0.29826750648655,0.968811807482783,0.059321150300238,0.335680485413025,-0.0380464080737512,-0.120884395208678,0.375465635824141,0.0676486415911718
414,1474,0.760559908527102,0.308696558163841,0.967964607080445,0.172761589599762,0.459962946215462,-0.035117061854706,0.354332112726589,0.0695668716020667,0.478188520060058
415,1475,0.772895346676979,0.324107758129866,0.967023949278236,0.363457194578588,0.644033027318385,-0.0306875894299953,0.420708000001734,0.193873588791299,0.834401401811328
416,1476,0.788451280416372,0.341847696053163,0.966010085678537,0.576496745314776,0.835633594092475,-0.025015913026625,0.329145869112447,0.178164624350685,1.1399568220046
417,1477,0.804426181684843,0.359108255042275,0.964972591601066,0.762112276846115,0.986329405313286,-0.015756317444617,0.510994370884217,0.0643976545137377,1.55463312546927
418,1478,0.819103032261556,0.37437480646158,0.963974766885225,0.894787091634247,1.07945732971744,-0.00456912429565267,0.57305082968444,0.161133005864286,1.7967287102711
419,1479,0.831660041507221,0.387113268852921,0.963037747548604,0.971473566714913,1.11501912006261,0.00286738729323324,0.725335515257069,-0.0835778300521564,1.54908908496686
420,1480,0.841837166180272,0.397274085176946,0.962127689286369,0.997421818411517,1.10471641813888,0.0025300697876477,0.597236912768551,-0.0400014891682938,0.952564129346211
421,1481,0.849714164466248,0.4051607600143,0.961196375450552,0.982467367180237,1.06404396965415,-0.00542545121327844,0.203664306442953,0.0507395487334318,0.294656045221801
422,1482,0.855534750086772,0.41125529335395,0.960348915635405,0.935607848592917,1.00536342056186,-0.0160199665271754,-0.0275566944966808,0.044900950255263,-0.116649270626183
423,1483,0.859416613658708,0.415790115824996,0.959389821725793,0.865424878488504,0.935072180503579,-0.0287724281192702,-0.0757789303180198,0.249443354572388,-0.405031389398635
424,1484,0.861786513180341,0.419242330213932,0.958424206572774,0.779346927735419,0.857407214725387,-0.040192397495127,-0.00247550287646498,0.332769960182292,-0.485833849292963
425,1485,0.862889761532663,0.421869248001156,0.957464038961101,0.683875617158247,0.778208998592151,-0.0500305071683884,0.0914561652233524,0.358962414053621,-0.515744994259229
426,1486,0.863074333387458,0.423973290912489,0.95651463492663,0.587371646006387,0.701586110521694,-0.0589538017238423,0.0556780967007689,0.375094415837593,-0.542499230589798
427,1487,0.862543179073756,0.425740500671296,0.955578667693471,0.494054119458465,0.630496921086093,-0.0667372677005335,0.101163367964618,0.248942958797446,-0.544593295834415
428,1488,0.861141395284767,0.426614475912564,0.957001494027981,0.394263176956941,0.546821226601714,-0.0560276236364633,0.0837773326681138,0.185749255489409,-0.44804963686667
429,1489,0.866263979811004,0.43322596583678,0.958337992867592,0.379085774246674,0.536223298609112,-0.0457816644690943,0.0604691910184828,0.094242831909127,-0.300649747409731
430,1490,0.865042914082171,0.434064081455239,0.959252316127339,0.308030536849627,0.471837414450687,-0.0363089137606796,0.114668988231206,0.0431959486752433,-0.0401418454223904
431,1491,0.866185181262522,0.43709692973605,0.960000653987585,0.270354507588735,0.431301323009554,-0.0267575707081621,0.166359842405046,-0.013744797010832,0.186295090108614
432,1492,0.866266747711032,0.438990984973832,0.960654620304679,0.227412219510979,0.383749885457041,-0.0183120174176427,0.371903744324868,-0.00254833161909096,0.263468329266332
433,1493,0.866884998946627,0.441261624122961,0.961255373288816,0.196516889918344,0.347030828167598,-0.00986401710516893,0.44220915780654,-0.080532037869367,0.40338060655319
434,1494,0.867227645665837,0.443197747664597,0.961823157594242,0.168028165953002,0.313730350461574,-0.00192773270808635,0.589798465536755,-0.10254537651348,0.454853315424898
435,1495,0.86772739089865,0.445221186256972,0.962380496284245,0.145041631669248,0.288936884373999,0.00594571310863104,0.608158090310942,-0.162400037409628,0.493151808586859
436,1496,0.868169377800444,0.447203492789678,0.962928544515047,0.124278332197214,0.270344749102629,0.012649410506107,0.518741725282007,-0.106858438279398,0.439249209885599
437,1497,0.868682096689689,0.449301409181049,0.963461283955026,0.109568392024695,0.259370901836759,0.0193928789599186,0.485059877003436,-0.0994740166743869,0.525066990145401
438,1498,0.869219734604832,0.451468662038069,0.963977187232979,0.100770096098206,0.251866708176725,0.0249886512522785,0.311094100397167,0.0631196791261116,0.530437548728448
439,1499,0.869825030732721,0.453749129659281,0.964471509161568,0.0973128807990481,0.246556549686056,0.0289271833090081,0.235786672725198,0.0441270735327919,0.492696105100348
440,1500,0.870501153287994,0.456129864649724,0.964940548039164,0.0974242368490648,0.242596528302168,0.0317724867125143,0.291924236168914,-0.0115063529668406,0.47432255160655
441,1501,0.8712874495376,0.458589954399411,0.965380107072736,0.100490332069607,0.240466286212065,0.0334422250622734,0.19044912876575,0.0747722625614591,0.434038595242902
442,1502,0.872170064510492,0.461123743137742,0.965784825331097,0.105423415737341,0.240801125743347,0.0343816990130987,0.0175761273091143,0.171622228489061,0.411946029684943
443,1503,0.873152395736571,0.463703166057236,0.966147604650585,0.111519528190895,0.24258545821136,0.033551702766917,-0.0937539527007421,0.196362570316047,0.300755510866746
444,1504,0.87421553853275,0.466316065438953,0.966460781307545,0.117237143994209,0.245011759950679,0.0309763258519346,-0.10367543825291,0.114858417034676,0.148004626268797
445,1505,0.875375832240804,0.468972082096841,0.966732318934715,0.119129572077186,0.2474888766445,0.0289571815256975,0.00866814634964589,0.0348142369765091,0.101281647858512
446,1506,0.876434104317347,0.471636987715796,0.96696176823496,0.120000362942777,0.248680401126678,0.0250866112478715,-0.0349091276152486,-0.0954112466602841,-0.0626291512814632
447,1507,0.877656638712145,0.474336486934453,0.967137492340776,0.119991314751346,0.251568298141195,0.0211856725969065,0.153034325720743,-0.269579732601004,-0.11276757902555
448,1508,0.878742846236012,0.477005777666752,0.967273882307504,0.116905395591939,0.253127920877645,0.0180162352203851,0.220494339572644,-0.296977939717186,-0.0928722702523535
449,1509,0.879864854670074,0.479668842823633,0.967426870796593,0.116741817624817,0.256129239657607,0.0157362047601466,0.305658135440162,-0.351910367406319,-0.142472532674608
450,1510,0.880969721565887,0.482382244441531,0.967567539096622,0.118510021371521,0.258595418495963,0.0118542739138615,0.359175333255975,-0.408559372638831,-0.246063636246723
451,1511,0.882076451219753,0.485064933643716,0.967666289958634,0.117755791789161,0.258329802420299,0.00918860645075314,0.36805621803934,-0.439175697471764,-0.164390916015755
452,1512,0.883169500378797,0.487724688647751,0.967729422027376,0.117064737047855,0.258089504774495,0.00616431293731599,0.372037347388942,-0.40209741072513,-0.199730271591907
453,1513,0.884279532500104,0.49036173014382,0.967754304839909,0.11897280237996,0.258308521689924,0.00167663583190127,0.240936680463619,-0.553347380965159,-0.288920723025613
454,1514,0.885440845405571,0.4929452345463,0.96774420134298,0.122003859421559,0.255721770257841,-0.00225411217496168,0.123878465875444,-0.583600876873647,-0.251067072540162
455,1515,0.886763753676535,0.495488964121014,0.967714096788786,0.126299604191868,0.253007938925906,-0.00493609991115586,0.148887838636762,-0.794191300017327,-0.178608093559019
456,1516,0.888038818761037,0.49795147214333,0.967675257181424,0.128851878766839,0.248595950492028,-0.00653693078423839,-0.0128515067746978,-0.774294898584535,-0.093066834887189
457,1517,0.88949552421946,0.500370283651392,0.967636572536084,0.130049348836418,0.243455852859993,-0.00545642110327115,-0.167881290060674,-0.7583959559361,0.111534282215608
458,1518,0.891111310646169,0.502753281371614,0.967609787316788,0.13174763834354,0.238679229541098,-0.00331185844881311,-0.326207481979681,-0.841587039836092,0.213379867425913
459,1519,0.892905384359858,0.505140079153688,0.967585965828164,0.13753389507211,0.235475727044998,-0.00163902992468544,-0.30635395007073,-0.857207168941863,0.226039943662859
460,1520,0.89493106636516,0.507529258808969,0.967578031024585,0.145031296492319,0.233628539001895,0.00144274612496208,-0.256479562914736,-0.824216772753817,0.335131725252653
461,1521,0.896368210462853,0.509910861132539,0.967606327054587,0.138650832873088,0.230433196074674,0.00762842310509217,-0.458297430376758,-0.625532501451155,0.555635673950292
462,1522,0.898168963735485,0.512277347748658,0.967686816309554,0.132161575062285,0.226527235429067,0.0147690470248681,-0.819320120859333,-0.486969861852189,0.631116472124322
463,1523,0.899775369042801,0.514617821578412,0.967826296271446,0.124471703439711,0.220769425828638,0.0236730478451283,-0.890947385592384,-0.336565171686083,0.785032830763984
464,1524,0.901496742969455,0.517055393541484,0.968027223633844,0.126079139712828,0.21627282382096,0.0300526417695264,-0.984106636835821,-0.220603289957536,0.68540058511013
465,1525,0.90343926073577,0.519365966981172,0.968263405641644,0.131195269245012,0.212463715772603,0.0356094799017998,-1.20522488744874,0.0104114883199615,0.665587912972466
466,1526,0.905455255534176,0.521688109846077,0.968535207179264,0.136951076982858,0.208698052799677,0.0389054360901154,-1.49032837581997,0.0474822003419576,0.533680355445761
467,1527,0.907568968600425,0.524006154215936,0.968855398373777,0.14619923069951,0.204599471542551,0.0434136315450505,-1.05176294352757,-0.217998238735133,0.557971107136109
468,1528,0.910021834549733,0.526195460118824,0.969233623604868,0.160029781149489,0.199196976418655,0.0488644362559817,-0.739055892704555,-0.377578397268416,0.559386610813389
469,1529,0.9132909779618,0.528022956591214,0.969645984008562,0.18591253628475,0.189779610071352,0.0532614622857805,-0.610254122678635,-0.445833550031569,0.44421860044416
470,1530,0.91745102227756,0.529360441542622,0.970031767630574,0.221524055308204,0.175206693554473,0.0554608864759332,-0.616392593197658,-0.369415665207891,0.292117430506207
471,1531,0.922026137550269,0.530313622622638,0.970314408562979,0.260724114741567,0.156198741131222,0.0536795002742198,-0.618029120595963,-0.672670432706708,0.0971911622061088
472,1532,0.926466822217457,0.531028639905446,0.970458237286244,0.29056763541813,0.13671303459913,0.0495630565914255,-0.470093564800681,-0.718843871798189,-0.0112737778021949
473,1533,0.930454694296126,0.531624487973981,0.970473980677266,0.30697815921188,0.117793804689265,0.0439773055297213,-0.310455245452637,-0.730217586781226,-0.0921571974030946
474,1534,0.933862800059079,0.532189755195002,0.970383923116707,0.313484373319292,0.0999642736386407,0.0367069106692518,-0.0870310673291134,-0.723528940568798,-0.205219260429338
475,1535,0.936663359510503,0.532801115699622,0.970214571663912,0.311101361774672,0.0860105185315788,0.0308779867564658,-0.111902061154769,-0.670154174429824,-0.0327964882072646
476,1536,0.938876683404681,0.533499602991166,0.969987291293272,0.296986660901523,0.076657095277489,0.0242763197186787,-0.296462532264371,-0.460871621169639,-0.150410687807587
477,1537,0.940574042075007,0.534301551700674,0.969711676386971,0.277164796105616,0.0714095457683555,0.0196980125628992,-0.335843064890205,-0.357737757451129,0.0457080240075819
478,1538,0.941881403265661,0.53520999061658,0.969411177317292,0.25629537483355,0.0714250037908989,0.0151934952839752,-0.248342175280703,-0.241862498180803,0.0952956989423786
479,1539,0.942843675120872,0.536251880077487,0.96909505868011,0.22764214690569,0.0761080174015186,0.011992521852431,-0.390453358747012,-0.3497002996702,0.169046811014554
480,1540,0.943567829073954,0.537473520417237,0.968743660941496,0.201422041526849,0.0853459487856371,0.00312743212749198,-0.570235758849269,-0.431194561769771,-0.23725734150434
481,1541,0.94411722703542,0.53878569427784,0.968362090008907,0.177741567334844,0.0904498117171216,-0.0064091520183622,-0.587525633589635,-0.60122880743081,-0.439028792541127
482,1542,0.944482445640679,0.54014811469262,0.96794023732439,0.150797862038028,0.0962688328887171,-0.0170424434463446,-0.368929135710756,-0.396765785794626,-0.709923257068425
483,1543,0.944725007496588,0.541479004418823,0.967485487302211,0.126180593785153,0.098077647477546,-0.0288299761791756,-0.47799047929516,-0.0961934619741132,-0.967637470688978
484,1544,0.944889490854575,0.542739756126551,0.966998100639342,0.105960779880923,0.0956057048970817,-0.0407008396563715,-0.297157558548491,-0.164809229507352,-1.11151690646185
485,1545,0.94504885223403,0.543877383552751,0.966479434177781,0.0919217615758178,0.0894533098863888,-0.0531629710226575,-0.0242350910468752,-0.210570795012301,-1.26738486557434
486,1546,0.945155337541324,0.545071450862571,0.965956216131336,0.081194015934993,0.0817493015949748,-0.0620586373506924,0.33000425593819,-0.291203852223277,-1.13996718980016
487,1547,0.94538671196579,0.54595427756077,0.965440927653609,0.0698971465269912,0.0709349927292841,-0.0674655989165008,0.439529917175399,-0.259030700662969,-0.953057378923614
488,1548,0.94561287899129,0.546652856491489,0.964950897198558,0.0629079411467498,0.0589568343256374,-0.0724624899489374,0.706625332695689,-0.40565454913433,-0.946952921341216
489,1549,0.945902755359341,0.547217096920575,0.964465997572153,0.0641915746287211,0.0482908815641953,-0.0808395275845251,0.783136664674091,-0.600401338465833,-1.17848537962904
490,1550,0.946287412810349,0.547708379868517,0.963963521926502,0.0686371518348055,0.0411278681818579,-0.0914627353257905,0.628058080794087,-0.667188512764208,-1.39470909890321
491,1551,0.946738552209323,0.548085158850333,0.963446462713932,0.0720540478627269,0.0311772851067894,-0.102306858555067,0.623664957961194,-0.618396451256365,-1.51428096421335
492,1552,0.947227849590838,0.548373243096769,0.962907744456482,0.0746182941281672,0.022603108439795,-0.114240339112101,0.685092537311603,-0.585968011979052,-1.7659353077178
493,1553,0.94771920474903,0.548524165519965,0.962363266964131,0.0736783863832336,0.00905433667067847,-0.124414825028309,0.816249808581334,-0.58221332804939,-1.8218912612754
494,1554,0.948184394273282,0.548491140696105,0.961825866200217,0.0723602891167563,-0.00932664760193565,-0.133069774512188,0.99035160725363,-0.45710870462896,-1.82967606479733
495,1555,0.948594665450148,0.548279874203466,0.961305916201761,0.0723724968035423,-0.0288227488125782,-0.140568343334882,1.19716891318396,-0.545249185610703,-1.70834875380196
496,1556,0.948958490381162,0.547873233120389,0.960785210783716,0.0697513786391647,-0.04863020028168,-0.148233913983514,0.869157125740721,-0.637449844843671,-1.66498668064287
497,1557,0.949294890406459,0.547291426112136,0.960238346899915,0.0584883808284867,-0.0717504958856438,-0.152829536064608,-0.92652552613908,-1.46590935172172,-0.917343160121037
498,1558,0.949371663958227,0.546309742929303,0.959843344233763,0.0234228406056191,-0.104247420976812,-0.136845185544797,-1.64014788432929,-1.93093883396166,0.76468494312139
499,1559,0.949242694524553,0.544828302421822,0.959805773665975,-0.00429399761192256,-0.127095336072796,-0.101658817805222,0.00332241271146893,-0.608811775618851,1.67579713382327
500,1560,0.949389437842369,0.543442394930802,0.95988187560424,0.0238787279870842,-0.115919021369854,-0.0811268374330129,1.67532770893259,-0.128956685085393,0.700336583897495
501,1561,0.949806731280177,0.542446157518567,0.960124579463301,0.0430486979646318,-0.0737414169437739,-0.0387718642095652,0.953346672775062,1.91299050060158,2.86064138223089
502,1562,0.949980366295093,0.541567375148852,0.960635331895066,0.0152670825860847,-0.0410651935061895,0.00623842157756443,0.168662887859996,3.29940974542413,3.27092752581902
503,1563,0.950198026997367,0.540963069338083,0.961264546152853,-0.00264872130058952,-0.024852201366823,0.0163198711820292,-1.42274587380767,0.575603570230065,0.904485717730191
504,1564,0.950273773394243,0.540692181102189,0.96178606021203,-0.00636090321544569,-0.0219833255569382,0.00470414003148334,-0.745697217924461,-1.653153588374,-0.963660910783264
505,1565,0.950230550238934,0.540340382586835,0.962145438826731,-0.00952274184709273,-0.0398646804329807,-0.00291135177197454,0.658961205482381,-2.18899597815325,-1.02973070293312
506,1566,0.950245502092807,0.539765331721339,0.962354920518382,-0.0111455523284148,-0.0770180342215369,-0.0170321113884201,0.290121799036261,-2.01992747601374,-1.4973713030884
507,1567,0.949785664410057,0.539010161362096,0.962521103760417,-0.0180994346180029,-0.0900542855124404,-0.00700237577551419,1.9821363356107,0.511322201278028,0.471651039898347
508,1568,0.94907721241259,0.538164069317768,0.962772054765275,-0.0277001637619263,-0.0903566608695754,0.012776603556529,1.23059204761816,0.701180210025506,1.58496405781182
509,1569,0.948451260661873,0.53727311296167,0.963108512387109,-0.0280278352749518,-0.0962867194907076,0.0256662394878633,-0.492808941913237,-0.954276739040461,1.22066298324764
510,1570,0.947815715027246,0.536268924687787,0.963499819362656,-0.0229539095424448,-0.0952885770673378,0.0372744416846413,-0.178884324174943,-0.267434074516134,1.06111949719657
511,1571,0.947306595889131,0.535253178781288,0.963890944707333,-0.0198105979650151,-0.0895339434257732,0.0407261225115923,-0.745711747593218,0.10588418527629,0.50036638351694
512,1572,0.94700323376744,0.53427713875931,0.964213917773806,-0.0188631325534671,-0.0789611260957489,0.0342444258464129,-1.69652711778714,0.31472218661571,-0.251548423626322
513,1573,0.946859046421886,0.53335026546166,0.964438846930582,-0.0184372753440625,-0.0742995962124783,0.02466665028455,-1.67740169108395,-0.0780418347431606,-0.558924315424573
514,1574,0.947101321067512,0.532760610266734,0.965729579663987,-0.00907235517279946,-0.0668516390491808,0.0235154035854444,-1.03374729823528,-0.362609978060219,-0.533894232876574
515,1575,0.945940867311279,0.530999451038204,0.966949545221504,-0.0197113939424376,-0.0745904825898061,0.0229261691738175,-0.745435372441024,-0.228048061938154,-0.541206218387096
516,1576,0.946476139902457,0.530736182792369,0.967819657879075,-0.019784755914073,-0.0692936615605329,0.0203677917366491,-0.92859836434935,0.0384889941404261,-0.554495509417272
517,1577,0.946245789607795,0.529985163298765,0.968514983774247,-0.0300945888733616,-0.0716583996446565,0.01863786615286,-0.856127476415167,0.135617897461191,-0.378504386210809
518,1578,0.94621098824138,0.529484186717789,0.969126817825356,-0.0393033555327579,-0.0740006380994405,0.0205328861769855,-0.666335519336116,0.204543088763066,-0.014705331560629
519,1579,0.946005147009419,0.528749143214252,0.96970518235828,-0.0431506618192384,-0.081194957164827,0.0234696250108236,-0.547721695576648,0.163851173866626,0.162424078603078
520,1580,0.945852615234806,0.527973841613131,0.970270083648749,-0.0399648057524982,-0.0869112817055409,0.026897142771637,-0.334803573546391,-0.10981237216997,0.284843105454794
521,1581,0.945745932538363,0.527072647676116,0.970815723101278,-0.0281649445019324,-0.0904143179467246,0.0279021546910493,-0.381417456052486,-0.352716255719979,0.159949033239481
522,1582,0.945776821712949,0.526145013220468,0.971333566912629,-0.015413073294901,-0.0895117322090901,0.0289356877485868,-0.448204382455667,-0.33108114373868,0.164428568925941
523,1583,0.94589587839969,0.525214393131815,0.971823489040338,-0.00609885854492033,-0.0863827647649134,0.0305666994774425,-0.386140708131598,-0.242771296735011,0.225841200101726
524,1584,0.946130422989249,0.524320229833578,0.972283263095393,0.00213994772292174,-0.0817541903186614,0.0315981018119038,-0.382959541683176,-0.215603076871879,0.206274667715319
525,1585,0.946453121720785,0.523504134755537,0.972708372590475,0.00947322619025112,-0.0750738005393836,0.0324610678623118,-0.423957841367598,-0.259174299874397,0.216325664102652
526,1586,0.94683389174023,0.522756641568489,0.973101457520078,0.014955764880836,-0.0673251859998891,0.0335541456893071,-0.383416290923559,-0.212818422207731,0.249876997359592
527,1587,0.947132049871473,0.522089470291713,0.973467984099498,0.0172244991075698,-0.0617738019675612,0.0345723540278858,-0.346053223903,-0.233439815027777,0.261723506962921
528,1588,0.947474100172887,0.521385890791016,0.973804837590393,0.0182714493886575,-0.0604796519469188,0.0346930491726952,-0.359096743506609,-0.23144639022803,0.204194773023992
529,1589,0.947707975500871,0.520682116960325,0.9741126336538,0.0165537832738866,-0.0622734369219533,0.0334787381626954,-0.444917835657075,-0.212417231636766,0.0914318610625948
530,1590,0.947840912966996,0.519934380177013,0.974389608779357,0.0147844724573826,-0.0666017429598399,0.031090087814528,-0.426502222784165,-0.167891002456441,-0.0150045463056732
531,1591,0.94790901380138,0.519156252399886,0.974636916461761,0.0143209677510877,-0.0709904779808977,0.0287373724784565,-0.254618863555201,-0.107303674629739,-0.0387646074734918
532,1592,0.947973827994557,0.518350737876304,0.974855123389981,0.0145746679375713,-0.0746929302040966,0.0263615730151346,-0.158425879670606,-0.0965336105665553,-0.0555957574698323
533,1593,0.948045100469791,0.517533564428491,0.975045826756069,0.0141902688979276,-0.0764266765686497,0.0234455137234729,-0.264087512518189,0.00325111645690518,-0.108138279403777
534,1594,0.948160770188661,0.516704292144253,0.975209781208057,0.0139482102990039,-0.0772052783659059,0.020889507632915,-0.258222631387438,-0.0159193953831425,-0.0951197057129846
535,1595,0.948340648359903,0.515847237644933,0.975351372675713,0.0132639180453501,-0.0781818015043683,0.0190339867966634,-0.31647603164096,0.0500060187918857,-0.0538977663783459
536,1596,0.948560066553827,0.51498585991881,0.975476369673013,0.0128195391491615,-0.0788967484084562,0.0172589563775566,-0.510619844837263,0.0872833862695402,-0.0433030822278985
537,1597,0.948777972407664,0.514173785199326,0.975588811606228,0.0121556827426327,-0.0779597614555092,0.0168008680153175,-0.381904224510834,0.0738971898796201,0.0713245057261921
538,1598,0.949037502784192,0.513398097471111,0.975697311989973,0.0141537049699127,-0.0774585910930961,0.0172168750993239,-0.276474898130675,0.0158062153378885,0.16641227715033
539,1599,0.949331380420589,0.512646549888875,0.975812481596622,0.0166594596400594,-0.0771326609014377,0.0189140439425046,-0.196119528265513,0.0736466270268799,0.284836274364415
540,1600,0.949654779516933,0.511937044993765,0.975936981919989,0.021315877908398,-0.0758806916614418,0.0209474199114818,-0.103295407192947,0.138993181362442,0.337837352901093
541,1601,0.949990239060744,0.511294469437437,0.976069069272593,0.0264716562140051,-0.0723948086040962,0.0229253363935541,-0.0422995621328114,0.138026521299598,0.355821580265348
542,1602,0.95035392613968,0.510688012369951,0.976206553523959,0.0343334691798596,-0.0690929656586044,0.0244630856483913,0.0513268504563404,0.235675136046946,0.342138403918364
543,1603,0.950724338716624,0.510139390901338,0.976343093000702,0.0397552869717139,-0.0641491779331423,0.025081285485661,0.117636210296956,0.204583296362744,0.270459144816839
544,1604,0.951076134011797,0.509632569565735,0.976473263077014,0.0422016340229863,-0.0590122944747718,0.0254921658615378,0.162799163575342,0.207524968436053,0.248389681980168
545,1605,0.951397601604406,0.50917341382815,0.976592811648037,0.0439472189537773,-0.0538468817740551,0.0250895403706952,0.176227193891771,0.215060542919028,0.180864607802714
546,1606,0.951624337675725,0.508754918095849,0.976699399295662,0.0442433077779396,-0.0491828182967472,0.0240806499255129,0.237293439247235,0.258050436028023,0.109518857860294
547,1607,0.95187149770459,0.508361627902105,0.976788781375381,0.0437916144609735,-0.0443742234792958,0.0226959229236529,0.337740363076715,0.240866076525506,0.0539078430416387
548,1608,0.952100804927448,0.508025556144232,0.976857816803183,0.0431640469689523,-0.0383609687902535,0.0204444250127782,0.387795460238935,0.26897065433345,-0.0295508474154886
549,1609,0.952323032914678,0.507726330871036,0.976901985868693,0.0422149902524296,-0.0330858845106301,0.0175388320842998,0.361989647023162,0.279947555156275,-0.10109044653344
550,1610,0.952522806633756,0.507457614920847,0.976919928310203,0.0404563435553393,-0.0290713004845604,0.0143933961911637,0.34390356454761,0.301787858385588,-0.145851695589279
551,1611,0.952694910723603,0.507212992380137,0.976912411154396,0.0388043467376417,-0.0270777038719039,0.0109346732172157,0.37384106011866,0.312589250649667,-0.186561054224302
552,1612,0.952862395899942,0.506988212420612,0.976880282932407,0.0381394892870732,-0.0257177017529476,0.00745977298116697,0.417916522866097,0.300532955148974,-0.202809214884371
553,1613,0.953068421305987,0.506771481632436,0.976830270539623,0.0385543446546406,-0.0235913587871092,0.00489026783639948,0.420299340529251,0.373880317988205,-0.138767594799318
554,1614,0.953367711319895,0.506565413270348,0.976768756838154,0.0413295433765485,-0.0211082915934071,0.0030587905707292,0.425730347472024,0.349558722499216,-0.0803269259360269
555,1615,0.953788815727059,0.506407590647153,0.97664382773685,0.0453495476708446,-0.0196041905730202,0.00223481648839539,0.406510535105796,0.334337154648679,-0.0108422546333516
556,1616,0.954295952490657,0.506190098818999,0.976581798128455,0.0502334900443512,-0.0163397624731296,0.0012535205326896,0.362667380365275,0.389101332048629,-0.0251514910185006
557,1617,0.954885772870201,0.506000737003136,0.976514810373346,0.0578567170471069,-0.0139688987226437,0.000619167702672139,0.458447005476638,0.310739354408338,0.020600258171381
558,1618,0.95555373560067,0.505826488648071,0.976441560687269,0.0652181539575026,-0.0118965389736893,-0.000528677148392886,0.408675283244081,0.360622274716879,0.00522959878703345
559,1619,0.956248732964633,0.5057048805438,0.976361402615527,0.0704784280808875,-0.00792424899382608,-0.00239687049077405,0.357002254089818,0.30812712083471,-0.0613667389080392
560,1620,0.956962569006841,0.505644119656531,0.976274528620112,0.0757585506620111,-0.00299770091672686,-0.00415796338841305,0.3817760791721,0.265102814038775,-0.0750925146957905
561,1621,0.957689161419203,0.505623054445599,0.976189703213504,0.078772371674844,0.00079972646997789,-0.00559840606403897,0.3321908295682,0.360429054076485,-0.0895617057886815
562,1622,0.958433197638431,0.505660757130305,0.976105689276086,0.0821433164594324,0.00510558770001707,-0.00748406928625212,0.314802849842791,0.38480302075753,-0.153048281882306
563,1623,0.95912905457903,0.505762994774661,0.976024836275927,0.0838119576778674,0.0100632748750081,-0.00847955283807939,0.38891213112485,0.392983266519616,-0.119865318537983
564,1624,0.959881829917788,0.505896347826428,0.975946424998821,0.0851700122881582,0.0135853882125354,-0.00922746127262543,0.389277631629624,0.438286586672217,-0.121557657099209
565,1625,0.960661776958899,0.506064521966525,0.975873585920803,0.0872585512790488,0.0164630208247085,-0.00976250395660875,0.389151532102045,0.399392045164057,-0.11259670379163
566,1626,0.961469995111047,0.506248419363904,0.975806342225399,0.0903140069816266,0.0199362990298904,-0.0109116096954378,0.359559711228142,0.498212706540936,-0.170373720232149
567,1627,0.962168177067383,0.506489108503738,0.975798213524746,0.0918701394276277,0.0217734704972597,-0.0105615926964472,0.425559150023851,0.494742342266171,-0.0645773061875211
568,1628,0.963026860257627,0.506709517173681,0.975750853008449,0.0946990337882574,0.0260052919779483,-0.0104045466963985,0.41017376692391,0.451254138304876,-0.0897046673268866
569,1629,0.963934878111095,0.506964166443952,0.97571477782193,0.0976487865630296,0.0298914581392174,-0.00833319977419664,0.523314154555996,0.510149286521456,0.00209335020138404
570,1630,0.964890956708883,0.507257315825829,0.975689581587885,0.101038023917627,0.034207706119003,-0.00664511769768013,0.437738079256813,0.425122537720738,0.00372794113166043
571,1631,0.965868839891899,0.507580850358261,0.975666327221634,0.103765968443738,0.0381488744650889,-0.00544115815865647,0.349347165392876,0.401991929089223,0.0105018567472982
572,1632,0.966877714285407,0.507938616850611,0.975639256796695,0.106424272966558,0.0413146029068375,-0.00402377341713102,0.37706827419877,0.322404324766623,0.072064036289835
573,1633,0.967930136323356,0.508327862876745,0.975604063274373,0.109734332249128,0.0439236517160769,-0.00351256733488973,0.32790637484405,0.271544596354291,0.0549166948151497
574,1634,0.969001094319675,0.508766743973388,0.975559127124581,0.11251060979388,0.0471801552487999,-0.00245877940345009,0.307066481776283,0.210341997939812,0.129477544556541
575,1635,0.970092524775537,0.509234000452272,0.975507062025706,0.115903735517061,0.0488714089634292,-0.00127595240741346,0.343005778503757,0.163895688009068,0.17914663947277
576,1636,0.971250696671598,0.509695246832266,0.975453060236842,0.121075906102226,0.0498351686544009,-0.00109508523276333,0.277229690329759,0.115554035557951,0.121180109734999
577,1637,0.972478246328252,0.510157427322196,0.975397016758005,0.125886729476545,0.0514600607803417,-0.000901144917609611,0.303742172490476,0.13094823627713,0.114475158838198
578,1638,0.973767792850377,0.510652967288884,0.975334930069045,0.131492230109544,0.0529679925794387,-0.000828114135858853,0.324673785535504,0.176297359136491,0.116263168734156
579,1639,0.975141893611428,0.511108549357339,0.975267168003709,0.137487536631955,0.0540085092138989,-0.00138941056139694,0.257123759118703,0.233038781730304,0.0638454914029055
580,1640,0.976542872896098,0.511603878676775,0.975192078000887,0.142064838019079,0.055690201272632,-0.00215426069909157,0.272039158872848,0.193318812582766,0.0364931548638922
581,1641,0.977985914445528,0.512118889883706,0.975108460892225,0.1477121470968,0.0578977298959859,-0.00340768783732747,0.326158049020627,0.162508342257549,0.00120647240767598
582,1642,0.97949036022213,0.512666949233259,0.975015867157405,0.153684095678848,0.0606601604056787,-0.0042305306614438,0.340321946610859,0.16636849039908,0.0359238906483852
583,1643,0.981052881057318,0.513241816543269,0.974917467539968,0.159895412910689,0.0624976435705763,-0.00501612547596238,0.292898094236588,0.181517684247098,0.0484059135759226
584,1644,0.98265670085317,0.513865416259906,0.974813742319149,0.165368430137577,0.066286195103245,-0.00603119132000226,0.364739454574104,0.120814722919507,0.0208349576140281
585,1645,0.984326023697911,0.514515879133637,0.974700893228084,0.172123403552876,0.0686835966471206,-0.00748436008903096,0.383675718837004,0.0841418240802782,-0.00847013706223802
586,1646,0.986045321686925,0.515182840276295,0.974579137377818,0.176697741081126,0.0703448490664788,-0.00840572861128535,0.403575074242967,0.162168384325004,0.00215954272411831
587,1647,0.987755100604936,0.515867812669155,0.974452709228165,0.17942281353314,0.0717116620584167,-0.00898260782173804,0.383400449652696,0.181886679783051,0.016049581257937
588,1648,0.989521994168963,0.516542571259307,0.974317664720916,0.181066673323349,0.0717924598191789,-0.00924536270496301,0.34898021823169,0.171026758949029,0.034249622458325
589,1649,0.991314482751553,0.517196246202618,0.974177233343024,0.182238327647719,0.0714779561029051,-0.00965324300220734,0.277063431792415,0.184064848866879,0.0290352124670267
590,1650,0.993109438903513,0.517814903996333,0.974033064264544,0.181771458701025,0.0704447843097833,-0.00992264646245239,0.223395278386482,0.134380021047366,0.0250959080139613
591,1651,0.994911457501859,0.518382691903958,0.97388199563411,0.181326703985994,0.0674412126315025,-0.0108615759037751,0.105519671568256,0.0437780192398776,-0.0153149685179186
592,1652,0.996686802592978,0.518899628073665,0.973724439948292,0.178895845373521,0.0635785770924192,-0.0116358936376595,0.0329067789813359,-0.00892436341085019,-0.0160326966057327
593,1653,0.998420703156432,0.519361168332791,0.973562313207012,0.175820113618664,0.0587773677001566,-0.012782617580475,-0.0252026921854902,-0.0133284590940738,-0.0499107864601834
594,1654,1.00006098651793,0.519821696682731,0.973411417676522,0.171328025496754,0.0533152958734421,-0.013395483240836,-0.137950556350697,-0.045426111154513,-0.0479565523395569
595,1655,1.00165893770002,0.520164386278294,0.973274579151423,0.165950095333243,0.0462890404528873,-0.0134470028012163,-0.181234541814388,-0.0602611126750134,-0.0174026570223648
596,1656,1.00314724877411,0.520479324082679,0.973161058761401,0.159060565106557,0.0387966867103262,-0.0133005150647841,-0.187546244781711,-0.0785801190451227,-0.0346380500708128
597,1657,1.00458061725682,0.520721296200213,0.973072052228562,0.153210012738486,0.0318553037767396,-0.0133866185402934,-0.278251184877649,-0.0855645294307005,-0.0521902654667888
598,1658,1.00594584090389,0.520928663498031,0.973008323344841,0.147271940327335,0.0259673318397274,-0.0129830878992147,-0.169224162736044,-0.14291626187693,-0.0401232405851682
599,1659,1.00725030752159,0.521071908459897,0.972971099282061,0.140846557143292,0.0199206718637052,-0.0116147264639036,-0.124771382380337,-0.136083726869717,0.00273579477195913
600,1660,1.00852504426702,0.521165103936797,0.972953143162085,0.136116188305451,0.0162600131738672,-0.0111225105800795,-0.131152290649714,-0.070762001214847,-0.0671345485098778
601,1661,1.00979554108007,0.521215139462567,0.972947425327149,0.131380130222041,0.0130707621551393,-0.0100572734237185,-0.156252968898467,-0.0119376814514421,-0.0403250125732782
602,1662,1.01108639351486,0.521245893273679,0.972946781956563,0.128916005327771,0.0107746143126486,-0.00967717776804084,-0.126460717724601,-0.0304345103259547,-0.0913622620494677
603,1663,1.01240926414564,0.521267277101486,0.972947146495935,0.127585878531905,0.00877181665453222,-0.0089312507845137,-0.0647289465298162,-0.0437831375686901,-0.0638651586255038
604,1664,1.01377406405641,0.521301673385274,0.972947362392202,0.128862661384521,0.00862207969198018,-0.00865693672318441,-0.0198953884975235,-0.012932743801437,-0.0701504955301608
605,1665,1.01512848191815,0.521334702797473,0.972960096779759,0.130240018801103,0.009152712965369,-0.00679851709344199,-0.00752891010463648,0.150175423641576,0.0488076329129827
606,1666,1.01650341422866,0.521413174649547,0.972988048048653,0.131565423935276,0.0101023357464618,-0.00497976374820191,-0.163085455568605,0.0836542082255591,0.074922422196029
607,1667,1.01784436808252,0.521491090331418,0.973037378186867,0.131617188229435,0.00979522301054161,-0.00412880350612082,-0.195615055587128,0.0032936360211451,-0.0185800398704124
608,1668,1.0191469412384,0.521581690356034,0.973100997965653,0.131261849880659,0.00912557161550695,-0.00434130474935563,-0.0882725539684916,-0.135775618201397,-0.135176062209433
609,1669,1.02042462032511,0.521670102155824,0.97317278700552,0.129796528869895,0.00777400124865508,-0.00450627933362843,-0.0217275058199681,-0.147854799543378,-0.18085582617904
610,1670,1.02172365916537,0.521762029405088,0.973249615833006,0.129983743806007,0.00655738635158917,-0.0041947208030757,0.0589410268082795,-0.04171191704859,-0.159381834314135
611,1671,1.02307055585857,0.521870794904941,0.973330151184999,0.129975920353642,0.00674446321150701,-0.00310363494445929,-0.00597490902501762,-0.0293354883221556,-0.103817197930005
612,1672,1.02445330843569,0.521976596173148,0.973418805874048,0.129742236073033,0.00707721132340733,-0.00154985810032008,0.012524625098884,0.025828023896853,-0.075347514020642
613,1673,1.02588726360674,0.522065240696629,0.973513616086165,0.130824593519912,0.00766610140519277,-8.31313839898539e-05,-0.0105364220750908,0.0973540852649399,-0.0573606846591534
614,1674,1.02734981554591,0.522142404691442,0.973616953449501,0.131191159305227,0.0087099819676088,0.00184449930424348,0.00971242503811414,0.171159544068642,-0.0262157145869973
615,1675,1.02877657009019,0.522274672957434,0.973743314124264,0.130984629422117,0.0092861327690669,0.00408750498837678,-0.11892808462672,0.205676193741444,-0.00524209502836433
616,1676,1.03027280607537,0.522322993203615,0.973890338666714,0.132022123496519,0.00884612982736434,0.00608209302299231,-0.194068956133492,0.174710563335302,-0.0145446134295215
617,1677,1.03172477945508,0.522438484786746,0.974057091215704,0.13264360029826,0.0106943069859903,0.00811405687179823,-0.0924229423285255,0.147680405426766,-0.0252843467497328
618,1678,1.03319152393262,0.522554745695419,0.974236849179595,0.133696736415457,0.0123439749847991,0.010285799919335,-0.0685849036299986,0.119835265593535,-0.00687573518354412
619,1679,1.03465517637141,0.522682922735868,0.974423494830033,0.135177498420565,0.0136871676230857,0.0124998968486994,-0.000461885010478052,0.0706798534868447,0.0119915452072093
620,1680,1.03612911602857,0.522823628898231,0.974611012930287,0.137813532169699,0.0161523235121895,0.0146526570909845,0.0170109359495691,0.125645190003799,0.0392926231263597
621,1681,1.03753459116015,0.522995288758015,0.974800278611074,0.138119447122321,0.0191015577859038,0.0171712847976763,0.0850926719901272,0.158120196828999,0.066485360709883
622,1682,1.03881045067392,0.523197772853954,0.974986876328714,0.138197740736989,0.020640601299473,0.0191401367258004,0.127083193372717,0.247361918093158,0.0688468316659188
623,1683,1.03988976439706,0.523463897284259,0.975165113609943,0.13476983453854,0.0239278731896102,0.0208214363508722,0.176413624850171,0.193873023037803,0.0740274798596159
624,1684,1.0407426775212,0.523767939803659,0.975328615428827,0.128887446942922,0.0259956284852529,0.0223138648385443,0.137095780658586,0.296583709603139,0.100327313516217
625,1685,1.04130736840235,0.524096414308202,0.97547770586707,0.116278249335911,0.0283135805981256,0.0241118542018447,0.135483506186586,0.298041752472186,0.131347096416459
626,1686,1.04153349832689,0.524411467449791,0.975610568172822,0.10030531307114,0.0298944492406214,0.0252212865650317,0.203562681126107,0.302413614482876,0.111948066439192
627,1687,1.04148710937745,0.52469130121005,0.975714686990085,0.0819865537260525,0.0316294270434137,0.025434407306466,0.164031576341978,0.281564911556102,0.0804879061466696
628,1688,1.04113333510526,0.524889150943593,0.975791004847172,0.0602675027465339,0.0326990063499908,0.0248619366408632,0.0801028126837556,0.30061200531067,0.0399372394623971
629,1689,1.04045109669828,0.524955675497283,0.975869716134514,0.037193294327305,0.0314545231453419,0.0237378055504487,0.117715934575891,0.298752845491172,0.00766183571343925
630,1690,1.03944837716404,0.524839904663487,0.975973252504185,0.0121166470692623,0.026115845498755,0.0224895522474564,0.043530236986034,0.306863934929714,0.00221974372585052
631,1691,1.03813327959772,0.524541686244277,0.976077533159976,-0.0151007200957987,0.0179193234610812,0.0208540870006938,0.0331307525258335,0.232336289311948,-0.0358788510775047
632,1692,1.03651598440811,0.524027843381155,0.976171247824617,-0.0435102449138872,0.00662795341841255,0.0190082688151361,0.045794744358052,0.249142721237977,-0.071218171013682
633,1693,1.03463491802373,0.523284504948777,0.976248110385998,-0.0710147877934224,-0.00818812682050894,0.0168129322671374,0.0276269994417648,0.201257232024496,-0.0842270705391305
634,1694,1.03251751119487,0.522280606590466,0.976305251030887,-0.0978572883937171,-0.024933537015283,0.013720606253811,0.0227060422977164,0.168780590150337,-0.162859430009876
635,1695,1.0302130959248,0.521038513191819,0.97633169030078,-0.122809377359379,-0.0422479888115764,0.00964157712415445,-0.0633677431688258,0.189120063510193,-0.234445795558342
636,1696,1.02771579870904,0.519585688994675,0.976301060851601,-0.146527766536251,-0.0580651999660333,0.00568719687962924,-0.0585539285847649,0.23606018427836,-0.253063822699354
637,1697,1.02510283842837,0.518003977258295,0.97624792889421,-0.168197052100906,-0.0721877803027775,0.00113084711610031,-0.122010645251242,0.256852116883992,-0.266610840037899
638,1698,1.02236460350002,0.516319927659363,0.976143498745467,-0.188241717991868,-0.0853653027769262,-0.00306904704442956,-0.119298454164417,0.250517742787704,-0.210503804926023
639,1699,1.01955640772835,0.514573947787303,0.975984704243453,-0.204734403530786,-0.0966380058865946,-0.00709179832399456,-0.0803098258851496,0.245661140125107,-0.162129510209799
640,1700,1.01671422108728,0.512815159046791,0.97576612511408,-0.218239062618194,-0.106158050801805,-0.0110112229454588,-0.108973364583845,0.263649986944147,-0.131580490343658
641,1701,1.01396241394938,0.511250870586848,0.975443913981238,-0.22849308099305,-0.111747336351895,-0.0141774612162893,-0.101388733437972,0.329198235096609,-0.0839990876322726
642,1702,1.01109853181579,0.509467706136752,0.975072501348829,-0.239260479822739,-0.120189975692703,-0.016355323597674,-0.0688233248247907,0.302466470975089,-0.00544840595882619
643,1703,1.00833254519772,0.507827051988426,0.974697797754973,-0.24671958764241,-0.125015079969599,-0.0178310781365592,-0.0548684417822399,0.342641007196303,0.0388272914600756
644,1704,1.00556712750064,0.506131385949915,0.974319274543284,-0.253388397683877,-0.129424899755363,-0.0193807464709651,-0.124210437443,0.340686590747044,0.0280678114874875
645,1705,1.00286551556969,0.504493194401711,0.97393388753058,-0.257474646211055,-0.132482266726572,-0.0208253393321746,-0.0847357375297453,0.32385752012305,0.0215199046593041
646,1706,1.00018100330593,0.502882677060557,0.973539454814033,-0.261236911393366,-0.133565493574137,-0.0220619043979301,-0.085956237718963,0.358458905086687,0.0237523485389998
647,1707,0.997546921018603,0.501327257722395,0.973129270213765,-0.263024920865334,-0.133153015762684,-0.0235862523393459,-0.146345182637738,0.386614420688686,0.02041982055421
648,1708,0.994974163291469,0.49981568943632,0.972698232961272,-0.264985908906738,-0.13235150574615,-0.0241299087729795,-0.105860455570131,0.379285946642824,0.0797667895167653
649,1709,0.992421363606227,0.498345537835137,0.972250971253952,-0.262660381964397,-0.129122375290173,-0.025516907776755,-0.150513219399141,0.412173064389007,0.0521646838638026
650,1710,0.989984090834879,0.496963381669256,0.971774383137658,-0.258066664014363,-0.125810203804544,-0.0269752288430854,-0.0470236391313699,0.359992440485297,0.0491675654302729
651,1711,0.987887645904384,0.495967827766794,0.97119365831134,-0.248176656244711,-0.116520846762416,-0.0293635954262112,-0.0985563147372006,0.345682543820578,0.0251940470208943
652,1712,0.986780894757636,0.496255023666701,0.970665911005741,-0.219976938584899,-0.0831861741940963,-0.0313980917718846,-0.101767681931412,0.358117793385651,0.0134216499647374
653,1713,0.988746544735696,0.500560639227957,0.97020110601469,-0.140399251943378,0.016677012410684,-0.0319795269189423,0.0205001953253569,0.336518296015592,0.0717122527651655
654,1714,0.994940610696959,0.510244657505925,0.969815828354866,-0.00398436476394036,0.190537614484763,-0.031505177314747,0.016378366804193,0.426529365608424,0.0857404992461098
655,1715,1.00399094550854,0.523369972468501,0.96951534098979,0.154558487384471,0.389825934018195,-0.0294235904231024,0.157005050920661,0.420866467830503,0.129600579614372
656,1716,1.0139579133154,0.537343941966868,0.969277108531619,0.30071036255153,0.567521781338874,-0.028025513609478,0.157110613444948,0.360571168826688,0.0663308236929984
657,1717,1.02351624681983,0.550495782342817,0.969075488937688,0.413375858357704,0.701532651584142,-0.0260572505209471,0.155695054893212,0.359534057003781,0.0837709269277007
658,1718,1.03197209602438,0.562000676786753,0.968893308286089,0.488908218225324,0.786319256921583,-0.0239672657280147,0.197930599094949,0.475047255669587,0.0947316438526906
659,1719,1.03904739583301,0.571587702390719,0.968717264826344,0.529927546779794,0.827073287561676,-0.0225033480962415,0.173026067012734,0.566490591420994,0.0570606525577823
660,1720,1.04471048387875,0.579287318591304,0.968534232703703,0.541591806941596,0.830622993533975,-0.0225761584163671,0.136351876079751,0.523751423202898,-0.0578710382289608
661,1721,1.04905127710187,0.585300666669275,0.968332514237371,0.530568014272783,0.806511818568164,-0.0240493524811128,0.201767014230284,0.476648536681454,-0.182866176440145
662,1722,1.05222334420269,0.589887017301183,0.968106083206155,0.501671083143824,0.763360931703414,-0.0262308124355853,0.177476851451612,0.523590677466715,-0.258717500703312
663,1723,1.05443373169611,0.593337044689878,0.967848366691378,0.46388799272998,0.708603176305972,-0.0291397989436628,0.187202357508594,0.48492964733311,-0.298275643073218
664,1724,1.05587374326267,0.595905876940894,0.967559329554645,0.419717511073816,0.649274412648228,-0.0321628364049919,0.239227534247816,0.526951814953753,-0.314862171836633
665,1725,1.05674429535214,0.597831601314934,0.967236430045957,0.374790288197124,0.588859665320459,-0.0355138364729384,0.387628686424827,0.501339120916438,-0.346059032267803
666,1726,1.0572201735446,0.599291513492997,0.966880350354467,0.330345784364377,0.52986381665648,-0.0386116176001537,0.350176804713695,0.550492667169415,-0.329573143789996
667,1727,1.05742296605331,0.600425988742015,0.966495466141175,0.29012696931383,0.474731016088526,-0.0420743379001906,0.235122094952079,0.604168735998068,-0.336114341891107
668,1728,1.05751121718341,0.60143392489506,0.966071381441226,0.253821938784078,0.425000920154921,-0.0459511544299555,0.177503827914567,0.627346981788864,-0.357066837792871
669,1729,1.05756684766408,0.602330514347832,0.965621204024527,0.220925972284187,0.37997124496607,-0.0484010893459488,0.151621030676119,0.662780808906423,-0.252422235133927
670,1730,1.05759138292436,0.60326743139303,0.965151973058935,0.19218264388579,0.341290798145909,-0.0512410539609252,0.165239077479626,0.612520510812859,-0.284293115448465
671,1731,1.05762845241341,0.604224062510656,0.964669523270887,0.165587459891356,0.308362452107102,-0.0536029853100481,0.14816038930713,0.559847516922906,-0.269164843960055
672,1732,1.05765157148778,0.605256582264454,0.964179254649888,0.141289492192629,0.279742863569447,-0.0566229373264121,0.0694387682292231,0.561993153893006,-0.34637889351837
673,1733,1.05770198758563,0.606341277557683,0.963671502494066,0.119896965383061,0.256672833752865,-0.0594537466916501,-0.0855324897276517,0.473927351551028,-0.2835067341725
674,1734,1.05776158085502,0.607524041544963,0.963172394993927,0.100755570844974,0.237267188743688,-0.0610786576440413,-0.321602634083262,0.333758818095165,-0.201270981606905
675,1735,1.05787326348696,0.608767947677216,0.962705374228222,0.0871745270487091,0.220869209137927,-0.0560611004123416,0.107693539002271,0.347433378634748,0.376906927844809
676,1736,1.05800352300473,0.610284074226043,0.964026187649727,0.0756016305794349,0.21227842493703,-0.0383461298394866,0.115176349877373,0.279336186591312,0.389489902313682
677,1737,1.05845980995239,0.612502722383733,0.965207237432554,0.0739634126428348,0.212236098662259,-0.023005921751321,0.267851129005246,0.208124790931575,0.486234245972433
678,1738,1.05870150178503,0.614896159097118,0.965985461096476,0.0722305571405756,0.216943592026816,-0.0109924221516441,0.448824858073105,0.141256591473822,0.61471247461432
679,1739,1.05916435987468,0.617514823782317,0.966597949535785,0.0727441850474169,0.227062272330372,-0.000720345958442475,0.49088939629867,0.203189535787718,0.61868838139242
680,1740,1.05967500575091,0.620249585059708,0.967108387840047,0.0747155749577821,0.240317075691467,0.0072136037703783,0.294066836078091,0.233907714821173,0.584489768043027
681,1741,1.06024851699143,0.623084988703112,0.967541796002294,0.0781282981912637,0.251667838815967,0.0146462462762173,0.479211969452137,0.0656684922103681,0.664372924602844
682,1742,1.06076362477901,0.625931052392327,0.96791505428762,0.0779560187238752,0.258932153602357,0.0207595632660656,0.586447413333444,0.0519421725638552,0.648170476954124
