,Frame,CoM pos x,CoM pos y,CoM pos z,CoM vel x,CoM vel y,CoM vel z,CoM acc x,CoM acc y,CoM acc z
0,0,8.2795225044815,0.583324172647175,0.681244128708554,-0.00533177988901721,0.00241680697631288,0.00463034408093028,0.0275791997832192,-0.00851545456041683,-0.00853112696857822
1,1,8.27952147802946,0.583319853622916,0.681275355108024,-0.00446441401337455,0.00210417589850789,0.00458858809037558,0.041659229549378,-0.000180326384880157,-0.0132839092940992
2,2,8.27953444816781,0.583319501540005,0.681301154892223,-0.00242600552701971,0.00214213998984739,0.00434935416032336,0.0488221049626228,-0.00999936466378105,0.04326727417221
3,3,8.27955316585447,0.583326734035462,0.681322713030863,-0.000311738767682425,0.00261309349788948,0.00384296387460041,0.0606875186793564,0.0133011532708613,0.0327528595843909
4,4,8.27957827893466,0.583330593545774,0.681338193145595,0.00145994024563392,0.00242672040177793,0.00347115908140125,0.0829878671045398,-0.0246512257755669,0.0331129610980071
5,5,8.27960809108528,0.583335961016971,0.681347756270035,0.00263024050435832,0.00216365596005742,0.00312849320890232,0.0121525675246141,-0.013118705958193,0.0665457831659249
6,6,8.27963406036007,0.583344322826574,0.681353086197875,0.00259122572521051,0.00184086966987667,0.00268067651160537,-0.00669077850549227,-0.0520118446897368,0.0141776046573055
7,7,8.27965430209278,0.583350804974746,0.681349675079715,0.00169747211206677,0.00118801986668844,0.00246136916959103,-0.0385812379248806,-0.0396184342087302,0.00258011213008997
8,8,8.2796587249294,0.58335989872207,0.681336345273325,0.000134076640876455,0.00128708613409263,0.0028386296457032,-0.0156776483740781,-0.0325270185438841,0.00871120287211447
9,9,8.27961928074391,0.583366929323479,0.681302077134645,-0.00140718548389359,0.000896053069872988,0.0028552265060437,0.0302086287170283,-0.0583405893335896,0.00496262699976099
10,10,8.27945348656331,0.583389694262974,0.681233423220294,-0.00498132006114257,-0.000253482762974349,0.00267067833766152,0.12020461354182,-0.108967682920189,-0.0167548357870571
11,11,8.27918038497528,0.583413872540361,0.681101381724654,-0.0101924995439076,-0.000419421282219991,0.00162540515961956,0.128214092603873,-0.10635463198735,-0.0489818078175409
12,12,8.27868450501832,0.58344294634168,0.680881150234729,-0.0187193724107655,-0.00255319422998483,0.000450184167066966,0.157095031800495,-0.108215357421511,-0.0235047658330162
13,13,8.27788638226952,0.583440731384639,0.680557870051761,-0.0325879191238135,-0.00430138012744573,-0.00114823233903402,0.191386890930322,-0.0952795975502914,-0.049146710292427
14,14,8.27679779364636,0.583304865947391,0.680163184908456,-0.0524033802152511,-0.00775252615952473,-0.00170879795798939,0.141203756241785,0.119954925795214,-0.0212531966936152
15,15,8.27558186259235,0.582961089009351,0.679781619800455,-0.0716270163325355,-0.0145752228091226,-0.00127537442351498,0.202166860757722,0.334266832660052,0.0307606651380371
16,16,8.27439258371549,0.582475960960289,0.679501383002445,-0.0869246899165385,-0.0216472676388521,0.000379731896975972,0.219522118382942,0.36671501503894,0.0899801896999454
17,17,8.27331614311484,0.581839938600798,0.679388908741696,-0.0955033518706416,-0.0304515513425712,0.00215875097747833,0.263732390424557,0.354424640755537,0.0274103846841126
18,18,8.27239237879999,0.581169443719198,0.679419610090694,-0.0982996367573329,-0.0373635848600581,0.00324882990867876,0.25118859099104,0.368739050642289,-0.118299107152274
19,19,8.27162650192727,0.580514362322092,0.679540724617444,-0.0965192856427354,-0.0417113998462799,0.00385317733692488,0.23237507881695,0.349429644721643,-0.204405409937081
20,20,8.27105724502988,0.579964742482508,0.679722365452955,-0.0893994294598475,-0.0431028262829335,0.00430070880313463,0.196788028028885,0.277971452122914,-0.221065854278701
21,21,8.27067698314889,0.579514585152424,0.679938736687297,-0.0802655611022065,-0.0427972317150756,0.00567601519905325,0.225984874775739,0.131850343385676,-0.200382274822561
22,22,8.27047328665074,0.579010478896854,0.680194055154898,-0.070153626137446,-0.0438135819739322,0.00740777208603257,0.107471596873163,0.0483613630396682,-0.152783598142642
23,23,8.27038407582263,0.57822864023718,0.680494448227308,-0.0622121908648781,-0.0496882220520073,0.00929009472880568,0.00907088935101319,-0.0404591365933663,-0.222734392060658
24,24,8.27042712432049,0.577147610588288,0.680812702333515,-0.0533916712772367,-0.0596720777404756,0.0121191127616904,-0.0456757317256055,-0.0311497826302864,-0.0576975185704746
25,25,8.27066430184898,0.57587268918979,0.681100575896988,-0.0401626058246357,-0.0715939109480117,0.0146454802992397,-0.13623231306993,-0.0358194227609692,0.229514762671689
26,26,8.27110508156271,0.574533454794317,0.681309169829032,-0.0249317063352566,-0.0818690126986342,0.015665262546419,-0.183227817792137,-0.101167226435535,0.299016499038382
27,27,8.27192416318484,0.573470948846458,0.680505130673525,-0.00301005610883145,-0.0846163704315093,0.00235446987866879,-0.286043239272294,-0.112656909169336,0.442461281769174
28,28,8.27202601643758,0.572139492661007,0.680199408987846,0.00314583280785922,-0.0921807796227214,-0.00112687337950156,-0.349363928421694,-0.181430286748587,0.48061976398532
29,29,8.27299880879385,0.571300617537698,0.679791098578887,0.0128285960885288,-0.0949451689268955,-0.00354146806261945,-0.239744097162758,-0.15970312952958,0.300911764334366
30,30,8.27370576145035,0.570339962304253,0.679345377699659,0.0173528610918001,-0.0966862194272572,-0.0050346678587523,-0.245794663512796,-0.150902077764503,0.3142364253091
31,31,8.27422112309344,0.569498712396387,0.678898602662008,0.0158771170304173,-0.0961486868531933,-0.00552602022911017,-0.214498876005067,-0.175669331844883,0.274924962044203
32,32,8.27446999472258,0.56874287861309,0.678504628132054,0.00842102262928375,-0.0937598232886683,-0.00467644544753461,-0.210413849262066,-0.138224377158416,0.233544497037782
33,33,8.27439995172672,0.56813604089939,0.67821879513708,-0.00541232189760168,-0.0880815770915846,-0.00206496667896048,-0.178944385608844,-0.333025333430021,0.169548737516731
34,34,8.27394838849371,0.567654640520461,0.678081964501885,-0.0287489821866798,-0.0839675385958103,0.00346391576365428,-0.161365149109508,-0.479268875717175,-0.00162138742931433
35,35,8.27309204426038,0.567270957331187,0.678166549282206,-0.0563719233890456,-0.081464875290315,0.0137828253961821,0.0810390813988389,-0.513634599941949,0.0779788585191944
36,36,8.27198517017201,0.567045742056296,0.678449731737854,-0.0734777058427073,-0.0703239505934411,0.0264278687448546,-0.0201611904508909,-0.515223654815263,0.743339451112805
37,37,8.27054573191832,0.566937841121019,0.678986096969256,-0.101429412115461,-0.0613813800705598,0.0443498593091768,0.0557169164027118,-0.488205039519097,0.742422383244701
38,38,8.26878329350959,0.567024999899041,0.679738203853311,-0.135940154673174,-0.0476413498516724,0.0632227066800069,-0.0187901746355438,-0.409750217671233,0.589605333964212
39,39,8.26658014339978,0.567167180010043,0.680659307831846,-0.18046058280957,-0.0273734816709388,0.0821743402635922,-0.14688550954176,-0.229057260379443,0.350113109874739
40,40,8.26367351193502,0.567379047977801,0.68179885313987,-0.253797076367142,-0.014491471105644,0.104921614289188,-0.180878705727694,-0.0715256506196946,-0.221077525490675
41,41,8.25988255369627,0.567507596816987,0.683111765148236,-0.338341217950054,-0.0110739496774614,0.127682298234614,0.29358415577565,-0.0102995368836811,-0.513558421077668
42,42,8.25530404019513,0.56786869753895,0.684581928108198,-0.410219854617539,-0.00319272914657833,0.143746802057105,0.417488338451754,-0.0919528757268061,-0.208198311966471
43,43,8.2504125345963,0.56822616763353,0.686103764839448,-0.441926380959392,0.00526980590212818,0.150834588075521,-0.175961009823511,-0.205206549062855,0.75369799983096
44,44,8.24641488407033,0.568833632147933,0.68748500454624,-0.373009745204374,0.0237326325782735,0.148500403761202,-3.03857939655542,-0.116089091732988,3.37412553995027
45,45,8.2429859126253,0.569530643336785,0.688721585392072,-0.327733002364862,0.0355704201577291,0.139239550902808,-2.50900640450844,0.157301166479613,1.68145933408538
46,46,8.23972531662376,0.570057595015619,0.689848552130689,-0.319831250461654,0.0358408910267075,0.132701920076652,-1.29746464236087,-0.0192957497357298,0.228246450076328
47,47,8.23672990819635,0.570588913497087,0.690856027862637,-0.309181532402768,0.0365873170566132,0.130335638808057,-1.04597976272488,-0.328613638657367,0.346768292054362
48,48,8.23383086273184,0.570992379139293,0.691791820867006,-0.307722434002957,0.0351154226020646,0.128489753892668,-0.8003540869224,-0.430721145845642,0.106431107140608
49,49,8.23093365024069,0.571281074608065,0.692682541498813,-0.312725150338631,0.0311134336793121,0.127783876512478,-0.439499599879722,-0.125073381948003,-0.0704898392429309
50,50,8.22801527351178,0.571438793185314,0.693544038261831,-0.31790655343317,0.0244838005726575,0.128483980797753,-0.396935211875462,-0.237752632553037,0.0349949142010367
51,51,8.22492279803406,0.571470775210161,0.694541156122164,-0.331043769601936,0.0137323369543093,0.128694514841619,-0.0421477972478408,-0.0396961435086322,-0.240890069726023
52,52,8.221559488201,0.571211915084683,0.695548827375284,-0.35024570010824,8.97364597735798e-05,0.130013471139064,0.186756318732354,-0.130790387722114,-0.243379791758115
53,53,8.21802717991441,0.570821254200832,0.6965727757222,-0.361047191989445,-0.0107007122967946,0.133080776431596,-0.159632646204198,-0.0534927510894636,0.185565742051618
54,54,8.21425937956331,0.570226906006581,0.697616519479772,-0.375870199904178,-0.0226590792723752,0.135125662373993,-0.133653048671849,0.0789465963266043,0.144700270024085
55,55,8.21030257833729,0.569500134888133,0.69864579929542,-0.389244813937089,-0.0369454119583392,0.136754314733947,-0.314022698691841,0.0991318040664238,0.247797170182133
56,56,8.20625611417507,0.568717130556143,0.699750055381917,-0.398862454528502,-0.0474933352413315,0.139836523080621,-0.640027357916908,-0.0243786300199115,0.517770013112199
57,57,8.20222160808104,0.567962118826289,0.701085062758148,-0.406402244301578,-0.0547742068994419,0.142323018855222,-1.03537423234563,-0.012568494769444,0.527569002254695
58,58,8.19817052930127,0.567360301581193,0.70260532381198,-0.41777219791561,-0.0576944772742456,0.146944393236117,-1.2651357743788,0.130962248433736,0.700997455888998
59,59,8.19415390969842,0.566852078224539,0.704435181370446,-0.436214688409736,-0.0613833223884133,0.15146192427642,-1.00331814051821,-0.0906536549069594,0.602349355023597
60,60,8.19024521846056,0.5665339751644,0.7061858641385,-0.446085712450176,-0.0519696881549929,0.158150088552217,-0.811285672923672,0.382833190145065,1.18726609781984
61,61,8.1862598869799,0.566612353498094,0.708373798032542,-0.445098780672742,-0.0330121661871273,0.164809252817146,-0.41978208870629,0.211112365071552,1.62447215421708
62,62,8.18311475223492,0.566806962284003,0.710837861339649,-0.434922048141592,-0.0135679086868734,0.17975675301451,-0.710123241208114,-0.0511547362557184,1.73473397095906
63,63,8.1803777619185,0.568065846055798,0.713402094956438,-0.419230643315257,0.0217040620331978,0.197064094434308,-0.659164403703996,0.0980652485375102,1.57994159616464
64,64,8.17751384830942,0.569642267516026,0.715973206824001,-0.402538039609678,0.054127905519101,0.211138809970736,-0.192659126079356,0.356421598995665,1.44925035966545
65,65,8.17416452462669,0.571459167220717,0.718407929429489,-0.406986676567359,0.0803440630767906,0.214394612750557,-0.34559511737788,0.487851514397983,0.832673599523618
66,66,8.16991883764928,0.573232901461989,0.72061938889947,-0.431193185859902,0.0939249485883553,0.211173408986762,-0.552446088683443,0.755850447159936,0.623816564101556
67,67,8.16500870064441,0.574777052371523,0.722641520242659,-0.458619412495506,0.0946377675874997,0.205839263003021,-1.02318520719559,0.889184729845365,0.621487276929774
68,68,8.15954751204922,0.576108271767471,0.724557502562897,-0.482065967907579,0.0950095861679317,0.200118848033834,-1.52507614941294,0.657530556029171,0.523204025344429
69,69,8.15401077867919,0.577327390261618,0.726453110222326,-0.488462284350416,0.0989288603392335,0.196950556590726,-1.79383090396384,0.385263184409532,0.488721789110255
70,70,8.14849334883739,0.578561335118914,0.728429453595938,-0.484722612172439,0.102250628052277,0.196294744797539,-1.48270451308283,-0.0222710445243474,0.562190538266427
71,71,8.14303197737691,0.579881802198432,0.730628576417442,-0.486462476768864,0.103168710178372,0.199328727203267,-1.23535256759145,-0.248569390858743,0.677191546512226
72,72,8.13781813421323,0.581557603705344,0.7330976014075,-0.488577334494869,0.111813723771978,0.203197924332977,-0.884361948492879,-0.253909902226197,0.436271475783605
73,73,8.13269645187987,0.583351070852092,0.735786084079402,-0.489225893557116,0.125329476029212,0.2110062932688,-0.723771681770237,-0.299300389255372,0.43111412997257
74,74,8.1275808184242,0.585105016227333,0.738625997276555,-0.489547701287397,0.133403574049921,0.219988875344736,-0.299563821533339,-0.522656694293976,0.400119216011749
75,75,8.12239612531827,0.586515803806169,0.741496527707389,-0.486925013669706,0.137212976997132,0.22881410425158,-0.0940942550709796,-0.485204281869084,0.225188312081147
76,76,8.11714391659562,0.587372241095706,0.744327361022365,-0.480634879780385,0.130343897152091,0.239157438394787,-0.0340768443169579,-0.620786429324159,0.172639035748139
77,77,8.11186475547846,0.58761506484191,0.747074244057524,-0.473741776013065,0.115837799178512,0.251349032581301,-0.145359914422833,-1.07366637492255,0.188945874068723
78,78,8.10663678393676,0.589046879389357,0.749810603798483,-0.469497639164855,0.108791560166653,0.263343009511787,0.307529943197552,-1.38582988086233,0.363135053416173
79,79,8.1013396473784,0.588605096228681,0.752485111400054,-0.46876952000356,0.0771427439389066,0.271855316326045,0.494857149704026,-1.11008032339265,0.3563588636403
80,80,8.09611874506983,0.587978848778499,0.755059020782456,-0.468419061892492,0.0439651749458969,0.277321281185758,0.553044563949846,-0.938689304591353,0.343501421644363
81,81,8.09097094200849,0.586460621091392,0.757544232990633,-0.465203480900615,0.00350493248435751,0.280961114301981,0.632745788820433,-0.689419717210633,0.36127124719155
82,82,8.08592699348487,0.584419415938703,0.759951715962927,-0.460525798181194,-0.036033963594704,0.284014351160649,0.590687468510417,-0.434858216889083,0.47375663945875
83,83,8.08099112961286,0.58183100577124,0.762271532518501,-0.458668504937145,-0.0766313444661461,0.282939430050691,0.514693345581692,-0.358626031514144,0.368894383058543
84,84,8.07617014620317,0.5789043027685,0.764490989776477,-0.457635020964603,-0.113791921912387,0.279452143176179,0.57876297667377,-0.102921493014905,0.405335141393466
85,85,8.07155997402991,0.575870908723914,0.766609339453689,-0.450800423080481,-0.140393218968611,0.274384647148484,0.653859697376477,0.321825781756545,0.256708011430751
86,86,8.06722668554033,0.57296735154047,0.768699771512685,-0.436147742207445,-0.155817530773958,0.272847051877126,0.646094325496519,0.575990679762732,0.465205003945738
87,87,8.0632294662575,0.570034196085012,0.770745319085876,-0.414518420280526,-0.165594607375247,0.272190700077147,0.562255468517074,0.665338045649067,0.407933066507149
88,88,8.05952829300567,0.567558747261586,0.772815814941863,-0.392255989339113,-0.168521566252047,0.271853627392677,0.581124271437123,0.709167383260564,0.486941423388446
89,89,8.05603934455315,0.565401017316665,0.774935503345405,-0.371152587016153,-0.166234878027025,0.271259695424087,0.644320496965529,0.738098316255608,0.492235081322164
90,90,8.05267918851709,0.563685995595012,0.77707349244269,-0.354274995629505,-0.159176168950408,0.267652645451402,0.74615017397017,0.684486784250755,0.371012974669802
91,91,8.04939591375765,0.562315457514898,0.779166141549594,-0.342028685205444,-0.14959324960724,0.261173717567829,0.811625451322393,0.596641063615879,0.255559783379404
92,92,8.04619844720493,0.561235311912868,0.78116957450118,-0.330814261170007,-0.140472755572471,0.252611731320074,0.89009787486946,0.534548390578348,0.218100776363192
93,93,8.04311596352116,0.560336464362585,0.78303546057699,-0.317984549896774,-0.131051377969855,0.242451024210614,0.930809937287675,0.384837804851617,0.0800090761118237
94,94,8.04022687733209,0.5595722012335,0.784825689378734,-0.30026812334796,-0.120696917948259,0.232957004200112,0.857992351757908,0.227072711124938,-0.0859473057137032
95,95,8.03753576846028,0.55912775225069,0.786508520390879,-0.281483211539063,-0.108101290009467,0.223193018683767,0.901358474370338,0.175109189802312,-0.0824844295650141
96,96,8.03501174318767,0.558787905661119,0.788113823063232,-0.262383305979847,-0.0949836188886276,0.21432110116857,0.871320164785288,0.106102776238337,-0.0930157685517767
97,97,8.03262899212232,0.558628490745178,0.789657807728325,-0.245136537618775,-0.0798314193039682,0.205420607937968,0.832830835608587,0.103851782415783,-0.153666447627802
98,98,8.03033953020559,0.558545569353566,0.791150586500112,-0.231620386408992,-0.0660262528246671,0.196327342195139,0.724684794020959,0.092156689646848,-0.175071002848152
99,99,8.02811231359403,0.5585299507493,0.792602631158755,-0.221282907251345,-0.0541095445667128,0.186626015148774,0.682872775433911,0.0579104265954867,-0.253587837181112
100,100,8.02593353053884,0.558595657965231,0.794038196324559,-0.212525156410147,-0.0456240911061145,0.178734066018596,0.613512426477747,0.103921100527203,-0.179325070931214
101,101,8.02377505632669,0.558591916088782,0.795478903210825,-0.207083911933879,-0.0398634123661632,0.171472422596548,0.646455336410603,0.0198505272769742,-0.103973971863108
102,102,8.02162295577667,0.558544002186433,0.796936776681658,-0.20359809460728,-0.0349759497891388,0.165304079326571,0.55230127079413,0.0575834772479457,-0.105616772348949
103,103,8.01947533865951,0.558429741769884,0.798401817944699,-0.20198779624994,-0.0317731668223119,0.159810118791487,0.485752604678246,0.02531225411141,-0.110624500172624
104,104,8.01734410237476,0.558197272477523,0.799857892010796,-0.200698585232283,-0.0314147889934441,0.1552468198844,0.474282942512122,-0.0253747562040996,-0.0765709322839675
105,105,8.01527244447494,0.557836014654963,0.801309794876247,-0.197117339158627,-0.0324571259927015,0.153328364836793,0.396483746142629,-0.119331146844466,-0.00558710454774864
106,106,8.01326615076923,0.55735898686588,0.802759229002388,-0.193969685787398,-0.0346262248397229,0.152285501272884,0.305877033524686,-0.161698005099368,0.046253763727316
107,107,8.01131069165546,0.556820790459995,0.804214880477515,-0.191007579357947,-0.0355019647000181,0.151113894185191,0.275977002815905,-0.0752837774103797,0.0280050814089878
108,108,8.00939446802236,0.556268312294605,0.805671590667001,-0.188634826393047,-0.0349301334476033,0.149362339772019,0.304902351755796,-0.132234646385452,-0.0266908753083688
109,109,8.00751946831848,0.555743114359076,0.807138507283326,-0.185808485222632,-0.03254283017318,0.149072557607753,0.105996988650783,-0.0955607765831666,-0.0588905095910857
110,110,8.0056201541051,0.555275082886944,0.808596203325951,-0.187548963448861,-0.0305138402547419,0.145594008334411,0.0902262940070512,-0.0622665506319176,-0.153164944031611
111,111,8.00366557684419,0.554901675573421,0.810035471819248,-0.1914382796357,-0.0283788149169293,0.140791454692325,0.113474832677253,-0.0388250288049554,-0.19373117649413
112,112,8.00166330702745,0.554656314114807,0.811450486721564,-0.196048762554958,-0.0251004040301916,0.134996508895018,0.106253094045179,-0.0271155479684865,-0.274160661017177
113,113,7.99963534233947,0.554533266409276,0.812838428549382,-0.200079296061744,-0.0228448756406457,0.129257421828908,0.0875165112582208,-0.0825643769108675,-0.302325046359633
114,114,7.99760305694263,0.554507917179279,0.814192473556424,-0.202264606207759,-0.0205486545082891,0.124223209394762,0.128740053814027,-0.147457688711256,-0.318543350485915
115,115,7.99559268230678,0.554551994585902,0.8155092090085,-0.20229017557367,-0.0179847547160089,0.120474854783427,0.0686035562201329,-0.149748437326331,-0.318233485592784
116,116,7.99359790149798,0.554639406632865,0.816782043025927,-0.201447814354897,-0.0146808422728877,0.117255317658887,0.0956652921221536,-0.166860737351178,-0.29164456659673
117,117,7.99162936123564,0.554706101062006,0.818010545826892,-0.197345398164116,-0.0109896907022103,0.117717538507149,-0.0236634426214382,-0.185530277264917,-0.196151399967073
118,118,7.98966583589519,0.554713289157687,0.819242770398083,-0.194914837370794,-0.00879396558960422,0.118881070565341,-0.229690185470496,-0.163290214166625,-0.184603498102209
119,119,7.98766671603004,0.554801647002919,0.820430547373354,-0.196569425494909,-0.00674542472609746,0.117143422148101,-0.205657086244367,-0.105624606663219,-0.150245643863104
120,120,7.98567539506239,0.554874718551482,0.821626383126534,-0.198846806831819,-0.00743802467108129,0.117327274711664,-0.368513841718946,-0.133296330789707,-0.129376521434804
121,121,7.98367314186917,0.554894154723671,0.822820904952766,-0.202855946672745,-0.00864882696130549,0.117370927934097,-0.52744565444172,-0.180701581834979,-0.126656445376866
122,122,7.98160562872099,0.554843144612262,0.824007608656,-0.208246259573427,-0.0119612949184956,0.116432513380533,-0.477478608738929,-0.285146567340552,-0.123590926905898
123,123,7.9795042996044,0.554761337840808,0.825177283024572,-0.213304325009167,-0.0170545096955643,0.114603529624967,-0.443476922339844,-0.364825766864223,-0.176059746352458
124,124,7.97735890469051,0.554611975841971,0.826344588366916,-0.217090835164036,-0.0215215712028711,0.113524590846229,-0.466612302700325,-0.436697304630951,-0.208665841535392
125,125,7.97518773891393,0.55439303933242,0.827510641794038,-0.219159412086011,-0.0283479473949239,0.112825826811256,-0.346805596233096,-0.40829270452606,-0.21657572025921
126,126,7.97300857053091,0.554126792050908,0.828694751263218,-0.219129757138741,-0.0323241621784951,0.114305816919194,-0.45880168785028,-0.467709957309344,-0.238712589646824
127,127,7.97081748777424,0.553813724888739,0.82987993428603,-0.219782510677404,-0.0357548449470871,0.114308616037552,-0.365623521567645,-0.473460353701557,-0.283454859434077
128,128,7.96866218458902,0.553454064657948,0.831056517199814,-0.218919818523947,-0.038522576348448,0.114162306138798,-0.296003599146704,-0.427574554914524,-0.31936843103851
129,129,7.96658060999206,0.553064592545962,0.832173376355419,-0.216511686319745,-0.0396508221779926,0.11427782060155,-0.343521119030849,-0.401073744006098,-0.341854312184169
130,130,7.96460202872948,0.552715917046834,0.833222879159243,-0.214529938928876,-0.0388585911819464,0.111683998680843,-0.281179034838598,-0.283021544564498,-0.371595021315033
131,131,7.96271987585737,0.552391511289629,0.834260777972403,-0.211249813425933,-0.0382702185382063,0.110041100207868,-0.443570695158374,-0.295677047861432,-0.374350548254518
132,132,7.96090803400568,0.552095978358413,0.83527971582885,-0.209707442268372,-0.038282026090761,0.107821646712977,-0.463662828660197,-0.319571937542937,-0.272702589325933
133,133,7.95914168196481,0.551810450101281,0.836307598452711,-0.208129761944426,-0.0377675051344544,0.108630573834599,-0.591710875383706,-0.231070409383804,-0.043397795424581
134,134,7.95741522926388,0.551554808876018,0.837383044826554,-0.206737361167574,-0.0377248255991314,0.111592770677707,-0.741774546062735,-0.171428385619143,0.0923374739451275
135,135,7.95568680176241,0.551314393834227,0.838519011421418,-0.206961193732901,-0.0381247414279158,0.113096115305699,-0.785826981649117,-0.210325409389343,0.0338088888267569
136,136,7.95395897886372,0.551054220275874,0.839720199166606,-0.205137836918656,-0.0392046597700674,0.113999126839027,-0.661485772912495,-0.0347044599331711,-0.0873348694065598
137,137,7.95227810388481,0.550814549785383,0.84098112045728,-0.199856820344425,-0.0383880949726478,0.114633624276783,-0.571219885718751,0.123032432646773,-0.28100122967448
138,138,7.95064940559842,0.550622403916488,0.84226554650026,-0.193437359652207,-0.0352644260288439,0.113756901019228,-0.453095991563418,0.227535608534755,-0.406976678606209
139,139,7.94909108034819,0.55047206909637,0.84356328635741,-0.185773922046944,-0.0314555173762226,0.112502828709456,-0.372076072547913,0.350312571208003,-0.476952476215141
140,140,7.94760087093707,0.550349790125637,0.844874418707946,-0.177220907380272,-0.0256014098816806,0.111966943426409,-0.486115412354335,0.404866324738469,-0.578452925974608
141,141,7.94614790731808,0.550288240295169,0.846163108826935,-0.1712237557644,-0.0209964125844337,0.107623635649896,-0.459033647420169,0.425016678893793,-0.797643210214942
142,142,7.94472727551442,0.550136507577947,0.847427130483984,-0.164888934398252,-0.0153326160107993,0.104160617973286,-0.458096618415986,0.524966166443838,-0.810603676677564
143,143,7.94333503907425,0.549980783845871,0.848665706876173,-0.15939381855709,-0.0114909976542249,0.10025263755639,-0.454151117505609,0.491822719012793,-0.873534287087405
144,144,7.94194762747252,0.549826104014085,0.849871152002267,-0.155760784208611,-0.00866467144100408,0.0951955558752036,-0.463009523791072,0.509888802609654,-0.952104502269196
145,145,7.94053313980636,0.549687868770252,0.851033518221645,-0.154511065318084,-0.00601129440583514,0.0885200414138253,-0.381538279711708,0.480740877210124,-0.994092825910933
146,146,7.93907019435024,0.54955301103997,0.852163842752594,-0.153928424482352,-0.00517791108129986,0.08323854583833,-0.378687818025295,0.441083738102936,-0.930012185659556
147,147,7.9375226887487,0.549398049986911,0.853247487884069,-0.153506080671448,-0.00304465741453737,0.0773085163305494,-0.41468772971153,0.22656966116933,-0.929969389928245
148,148,7.93597498526504,0.549254584324191,0.854304043738277,-0.152934294464287,-0.00152924633591954,0.0751087435828,-0.447753591040676,0.212027965308953,-0.824472621857437
149,149,7.93435738733705,0.54909990834534,0.855385773771324,-0.154605441826993,-0.00180567617522815,0.0734870224117119,-0.434287699698788,-0.0029345139753634,-0.815976750903482
150,150,7.93267110219684,0.548911690942958,0.856491051944575,-0.15693175464779,-0.00190795345072297,0.0719542892850661,-0.409781093411661,-0.0797533679244693,-0.824649110874938
151,151,7.93093880860096,0.548727912734024,0.857624570001879,-0.157006398910686,-0.00225526646391272,0.0717746681449357,-0.326761465408106,-0.218949289640037,-0.803800626783538
152,152,7.92917383947173,0.548570191891104,0.858768688000051,-0.158193501806289,-0.00257185066448336,0.0697183523696403,-0.199998594017083,-0.214888126212688,-0.849797856203152
153,153,7.92738349210709,0.548422285807937,0.859909389272507,-0.159360954090258,-0.00220512491486282,0.0683811092641683,-0.0886585495105269,-0.162513989686068,-0.766056766246398
154,154,7.92556885238481,0.548217503785927,0.861034746794339,-0.160990814574524,-0.00483416171928014,0.0678287180535005,0.0396510986365843,-0.0167268630132502,-0.626191131544126
155,155,7.92378157570319,0.548053529736567,0.862142624433347,-0.163734538062353,-0.00589204202073771,0.0681991608640462,0.126216403561342,0.0162696306792563,-0.392662436355778
156,156,7.92200280295781,0.547734953184882,0.863244566982687,-0.166677205894289,-0.0114221316825852,0.0716515953558164,0.148204243205417,0.0409415930329158,-0.0265616859368758
157,157,7.92024446401407,0.547360191672803,0.864354425454005,-0.169656677548527,-0.0183181002309657,0.0772446152553247,0.0802094171964752,0.0251286584228719,0.225459257929104
158,158,7.918478599336,0.546864767424194,0.865478842415663,-0.172150107197971,-0.0255993195523793,0.0840531292978303,-0.0164724393286851,-0.013448381680136,0.335403520014668
159,159,7.91669336631286,0.546257318260694,0.866625723366448,-0.173800556901709,-0.0351681100781206,0.0928036856165517,-0.0948995474711209,-0.0963497602894999,0.477580166112743
160,160,7.9148877574685,0.545529335010338,0.86779475250058,-0.175149328834742,-0.0462924597140862,0.101765611653615,-0.193536988072438,-0.149637111051392,0.484105271136573
161,161,7.91310296026662,0.544803791177976,0.868974418851714,-0.175224046274489,-0.0571226632925799,0.110232720439969,-0.182657400670602,-0.176062517086211,0.510390060603636
162,162,7.91136543156367,0.54397516068179,0.870164027145738,-0.173578718906809,-0.0659896219568981,0.116918352525778,-0.0984738657259738,-0.135100455615084,0.433189072883504
163,163,7.90968552242606,0.543174552209626,0.871363182762067,-0.171570545464114,-0.074146229974116,0.122791396791788,-0.103132045687005,-0.226096423493205,0.423706133967981
164,164,7.90803867565151,0.542455876421131,0.872568256177906,-0.17029358853439,-0.0784167800713884,0.127465909471168,-0.0660733924099298,-0.19583828524071,0.456118012262941
165,165,7.90643325054635,0.541826367253934,0.873793406023736,-0.168097148016281,-0.0810217841744206,0.132141951801015,-0.101228126201519,-0.164767519317534,0.441808679039012
166,166,7.9048149203289,0.541266390638128,0.875052275925361,-0.16631511520905,-0.0806377026605273,0.136646563196187,-0.149983465978573,-0.143268155483375,0.414474467120905
167,167,7.90315903621831,0.540734850438529,0.876345814953835,-0.16471359405204,-0.0792783942014989,0.140827828078265,-0.121096039750758,-0.0346702706688543,0.393942727116304
168,168,7.90160809520379,0.540409899300033,0.877677973465717,-0.161563887465462,-0.072403245053483,0.143850822649916,-0.129049401169571,0.0426199139766078,0.28538450854456
169,169,7.90001680667363,0.540090259821519,0.879041901719791,-0.159534701992632,-0.0652454607125908,0.145756357558201,-0.153920254032933,0.0908729642926838,0.189438627246683
170,170,7.89844792452656,0.539853875538692,0.880413177014198,-0.159940177231746,-0.0565095760779123,0.144724459206346,-0.124711206180396,0.104243578566557,0.0597411598735574
171,171,7.89685515519479,0.539622467494164,0.881792096092699,-0.162307407059714,-0.0488923746476023,0.141992209559419,-0.0863359246971146,0.0361244155863505,-0.0282488745053014
172,172,7.89523746150714,0.539403686014662,0.8831285788762,-0.166622729056264,-0.0415475888793053,0.137334968718018,-0.0777425029583547,0.0710461891155223,-0.119291809354211
173,173,7.89357934774228,0.539123236446605,0.88445744860586,-0.16889336069605,-0.0366084989750225,0.135536399316393,-0.198574785538059,0.101204610652043,-0.114485429449006
174,174,7.89184403212015,0.538752566895836,0.885765586761373,-0.172972498759824,-0.03396928259784,0.131704504997048,-0.233243924269415,0.173145478613058,-0.241887308906647
175,175,7.89004606992878,0.538263607846207,0.88704319089062,-0.176051219548557,-0.0341619250267854,0.128157990788927,-0.196297075921721,0.187245441267037,-0.277841894218219
176,176,7.88821259047326,0.537658349913487,0.888273397297999,-0.178097597648472,-0.0361794728469624,0.124306472071642,-0.288393706081657,0.1843362775003,-0.353186832429955
177,177,7.88679327763078,0.537261508840903,0.889434073222042,-0.175218780548878,-0.036037269427164,0.118709370827103,-0.256179773319096,0.237693927781081,-0.45508164772404
178,178,7.88520078585547,0.536669237802073,0.890509815206705,-0.174810850480592,-0.038624863922815,0.113047382952868,-0.23904496297977,0.196967371281038,-0.415437211884171
179,179,7.88374237484458,0.536098503537775,0.891493623053935,-0.172955661621734,-0.0416987379078308,0.106612345105169,-0.171554013811718,0.0487905271960565,-0.43994193329072
180,180,7.88219957139086,0.535428806219472,0.892396507592731,-0.173080391647372,-0.0458994055755371,0.0998515756977401,-0.182506872435224,-0.0134827960023947,-0.46484996424814
181,181,7.88063330593328,0.534787931995295,0.89335926807017,-0.171260618642488,-0.0515952090942614,0.0952285573031879,-0.150659294663492,-0.0886826874764768,-0.455155585482939
182,182,7.87916553619751,0.534165586297327,0.894314738612137,-0.167505351105694,-0.0547025822474237,0.090134491568881,0.00901960643246429,-0.15600244053737,-0.504957682799213
183,183,7.87764499699216,0.533504943571085,0.895252806246891,-0.163030373281956,-0.0573544089452853,0.0869686679088523,0.0353701134675104,-0.15832574477369,-0.445288021380305
184,184,7.87621073065477,0.532916878171337,0.896168663178862,-0.157867195148848,-0.0575283457499964,0.0829816373118558,0.0496720575378204,-0.15518834900372,-0.535262803979679
185,185,7.87473708398338,0.532255941732572,0.897042137651083,-0.153468401924828,-0.0586029780462906,0.0787321329126192,0.154416838570103,-0.140314218011611,-0.54881794125658
186,186,7.87339239974425,0.531696784001194,0.897839355565388,-0.148982979244535,-0.0568717110949658,0.0736067809057115,0.184700986740368,-0.0549941155593422,-0.56178556129267
187,187,7.87208588753981,0.531190413300933,0.898622198043227,-0.145164961153574,-0.0535286267595987,0.0688241326556181,0.148468446998823,-0.0508706421770286,-0.53035968124855
188,188,7.87072291971504,0.530641692826244,0.899344507808815,-0.144423626328887,-0.050590131739699,0.0637594616933109,0.0700461806215419,0.0329053888323344,-0.524240475007025
189,189,7.86937707473192,0.530187763658702,0.900022884884503,-0.143641246490469,-0.0471819731164336,0.0597851704331131,0.0124149821754272,0.052769335865464,-0.456067275992723
190,190,7.86797222869457,0.529720881795979,0.900663217715435,-0.144894285732433,-0.0449263994696281,0.0557935804338728,-0.0312596408179037,-0.0211914952996171,-0.435239567760716
191,191,7.86656536522663,0.529221655862981,0.901275465936991,-0.144093996089178,-0.0448792684077018,0.0531694661008646,-0.0458013499821939,-0.0929980664619033,-0.401143025543324
192,192,7.86518519538924,0.528607204501502,0.901855472289046,-0.141149791321452,-0.0461055492937085,0.0501216420026927,0.126268620258149,-0.0160628701151035,-0.43019493414525
193,193,7.86389050840755,0.527882250818616,0.902404683262708,-0.135814678837988,-0.0482205210628039,0.0471955807174211,0.147319993994265,0.160477663330157,-0.432223766002957
194,194,7.86265438348185,0.527116628614582,0.902929371862927,-0.130519195327667,-0.0486244363285,0.0437877683313196,0.17226007686335,0.331284185886465,-0.428885921644799
195,195,7.86143033733594,0.526400126529369,0.903440941306651,-0.128622564511921,-0.0487492469586123,0.0400457531847998,0.0550073130557058,0.51843830997194,-0.421311683121563
196,196,7.86016437132972,0.525819333650292,0.903951507797678,-0.129240867181329,-0.0458037828828703,0.0362970096291372,-0.102059514273945,0.424262756545544,-0.454542937050868
197,197,7.8587517242091,0.525368180441759,0.90444640072199,-0.135020951928321,-0.0416964820582986,0.0301660523129755,-0.083826432948344,0.379954386680934,-0.585187553935387
198,198,7.85712081771851,0.525056164226581,0.904922667599917,-0.144685795914936,-0.0359095091267664,0.0243391013743107,-0.0690728181002339,0.383946650880912,-0.576274011396785
199,199,7.85525074151059,0.524915954098554,0.90539543812821,-0.157719576665186,-0.0277008090806731,0.0206777629583818,-0.0405251833309127,0.368698428703192,-0.416428042758391
200,200,7.85314728148284,0.524943414920656,0.905878942356062,-0.17428473770407,-0.0201214154563887,0.0175359402659257,-0.0272052671617206,0.303649079387159,-0.352068949747356
201,201,7.85092689991685,0.525105718076738,0.906371084270503,-0.185740404745423,-0.0154229794762096,0.016145454088486,-0.10130727897703,0.127874940891633,-0.342403426486578
202,202,7.8486946815314,0.525222820658803,0.906860043011349,-0.194058681580922,-0.00938477636972889,0.015035876790712,-0.302646071225382,0.157075350815692,-0.427812657557871
203,203,7.84657697230906,0.525381098077566,0.907353886269794,-0.199436649062381,-0.00303624079639251,0.0151135392279639,-0.415686380982071,0.346022077996932,-0.353949539483174
204,204,7.84453488896741,0.525576945534164,0.907823503073988,-0.205562896183191,0.00226217546660214,0.0142434884093854,-0.204731013610045,0.267025356017553,-0.270858011552168
205,205,7.84281566090559,0.525831875850499,0.908285137536536,-0.204387300797434,0.00621777368665648,0.0143627344758489,0.096001248902853,0.293056008465337,-0.147875933986364
206,206,7.84165736449778,0.526173224593449,0.908789764744682,-0.190342341487398,0.013483156307666,0.017545101377722,-0.205621227577294,0.450275910578498,-0.10827497933044
207,207,7.84120321665656,0.526681049176769,0.909289306132878,-0.170770792511666,0.0248672988016762,0.0193798299042666,-0.316656522510155,0.560197195167061,-0.139081236594144
208,208,7.84122538607232,0.527312621052708,0.909798267809174,-0.145822000683344,0.0362893385870619,0.0213594597968362,-0.245225219364307,0.566655693882284,-0.114954875771869
209,209,7.84171336898152,0.52817562557712,0.910238550243666,-0.117055209509702,0.0506956621795225,0.023573190033288,-0.331787050822632,0.628878754082943,-0.0488622012074154
210,210,7.84242280900571,0.529192595424582,0.909398959728091,-0.0879172289643442,0.0650483118807315,0.0204627901947504,-0.411176968946486,0.709120008466224,-0.0988968156042486
211,211,7.84326010714134,0.530280597784021,0.90879995674687,-0.0621147926581171,0.0811526373052965,0.0166731083444204,-0.487184226626415,0.838207040583854,-0.150415060119328
212,212,7.84417650184593,0.531433896645085,0.908357199577061,-0.0393817238393508,0.0966599345039097,0.0142385290055213,-0.455728405971889,0.976222491728653,-0.0358092913916066
213,213,7.84513196760936,0.532767954188148,0.908053544530931,-0.0197557101422279,0.112030246126805,0.0142790129765902,-0.479384449794272,0.991332621342813,0.129697119593388
214,214,7.84596215835991,0.534319016727997,0.907892156472912,-0.00726681099657021,0.127292357354148,0.0153764108440195,-0.450655483914112,0.903774660494453,0.196518684554652
215,215,7.84658690492772,0.536041759054366,0.907873449714401,0.00235535992264966,0.14033427944991,0.0197841040271662,-0.300997360725238,0.807411080626539,0.411362234442024
216,216,7.84703059136058,0.537836928959171,0.908032071021445,0.00903857173347037,0.149570673464373,0.0259104453914363,-0.323800871803773,0.527971013929545,0.420768470783625
217,217,7.84732102814987,0.5396466576321,0.908165576726958,0.014165156087801,0.157526245032061,0.0317693201736483,-0.286076231605892,0.32191263487469,0.427137543644755
218,218,7.84740675060757,0.541361600307408,0.908397907299294,0.0127063690509078,0.163604166998233,0.0349440088682169,-0.194140946613331,0.280999141024633,0.246361800701461
219,219,7.8472005535952,0.542938455221687,0.90868385599132,0.00631395237411989,0.168858202308442,0.0372874236611243,-0.150373417919251,0.355408837986607,0.218179577059174
220,220,7.84657645178152,0.544303416038966,0.908991767079944,-0.00586737260404722,0.169495129206655,0.0382096476940601,-0.147062543126832,0.356438611124239,0.161692074666808
221,221,7.84547170074281,0.545369377891515,0.909272631064526,-0.0249595372504613,0.165087963515847,0.0367112359545787,-0.248909884175649,0.344774992061996,0.0255886408538672
222,222,7.84381068192855,0.546085006972656,0.909502849511099,-0.051231775015617,0.154682892572328,0.0346242538837136,-0.439658268381207,0.268237860334555,-0.0365139275832579
223,223,7.84156193433311,0.546516239244871,0.909660393666939,-0.0865002308102172,0.141973119189176,0.0303163375080748,-0.407971463854994,0.0600571660987387,-0.145854549293718
224,224,7.83888169847986,0.546685659412868,0.909754694874156,-0.122760753692569,0.12700545994754,0.0258000769058503,-0.571316109006665,0.0598931482219613,-0.243136940288459
225,225,7.83596806652619,0.546691801587938,0.909791226418698,-0.158779310999557,0.112327268541948,0.0194277002030459,-0.713450941346606,0.0865803387232561,-0.397051476652607
226,226,7.83295103836481,0.546657327444968,0.909774889394755,-0.193198142189204,0.100376104971638,0.0122597540305424,-0.797646098335355,0.147550052517693,-0.435839743256387
227,227,7.82990653853862,0.546708371367447,0.909722556616682,-0.223214788289809,0.0916036404480372,0.00502063407358034,-0.775937319328733,0.260691754488767,-0.457009129820394
228,228,7.8268757861971,0.546915549930489,0.909639970882213,-0.246538650412924,0.086625855608954,-0.00171963526222517,-0.684527278007049,0.318847647504387,-0.477415028376618
229,229,7.82387514423726,0.547337899269901,0.909529355816388,-0.262509271748293,0.0865112820304049,-0.00682571041119795,-0.548354929479165,0.355483532366031,-0.427522972340209
230,230,7.82092332932131,0.547953775195893,0.909389801923165,-0.273195406152627,0.0895781147626889,-0.0101284887163297,-0.533509689688539,0.411945148923877,-0.347385476419968
231,231,7.8180353034315,0.548719327226252,0.909217638002037,-0.279196756583393,0.0949752594525537,-0.0126956789177017,-0.42195230671209,0.567343130130867,-0.316689737716246
232,232,7.81521913814578,0.549587169953682,0.909012024403541,-0.281572999456977,0.100686172238613,-0.0148451987536943,-0.467653783187147,0.64984750967343,-0.312398956553791
233,233,7.81244717098839,0.550572143910649,0.908780710538383,-0.28317426772234,0.10884546490822,-0.0167823228524173,-0.576039536541762,0.786094571285272,-0.304624646005691
234,234,7.80969731110033,0.551711846845627,0.908536821054478,-0.284548766378954,0.118833356066337,-0.0196720230042274,-0.666734010154376,0.876466687902142,-0.417533841500974
235,235,7.80693385328825,0.553033159424036,0.908251871490605,-0.287122227123609,0.131099597927206,-0.0233646588620667,-0.706055999264835,1.03309865798182,-0.463738466569985
236,236,7.80412508940471,0.554528128692362,0.907916747694108,-0.290902614201894,0.145300032720046,-0.0273945027543626,-0.715644822810139,1.07903749261367,-0.456678855810616
237,237,7.80121754619505,0.556148656362707,0.907571419296862,-0.298188152390289,0.15859552834121,-0.0321866241917827,-0.615991669770253,1.06307101474765,-0.466087517347601
238,238,7.79818134120848,0.557840835340967,0.907207018609255,-0.308694512152305,0.170231593940679,-0.0378188371600607,-0.619803417338075,0.994344327360958,-0.503166512348012
239,239,7.79500115796321,0.559557383633176,0.906818713033796,-0.321462902418785,0.179902039063621,-0.0434819516097584,-0.664216421944745,0.885695379840131,-0.491936520903556
240,240,7.79166984373151,0.561202976146558,0.906392707532401,-0.335505251941427,0.186113318794378,-0.0487351452500565,-0.78369040013211,0.834459884269301,-0.420723518090271
241,241,7.78812012619087,0.562829326058643,0.905928435258398,-0.351670574178225,0.190270387509502,-0.0525665514676855,-0.797239870598148,0.742921695623148,-0.266006507520156
242,242,7.78433414026539,0.564447687719998,0.905527739181711,-0.366680811373108,0.193351065383933,-0.053906536418843,-0.824914591230812,0.646830348837768,-0.134887294127793
243,243,7.78033431766952,0.566032246871723,0.905135884126533,-0.380337938383481,0.193578502122442,-0.053550002187246,-0.917652734750755,0.546401449549301,-0.0373651408775785
244,244,7.77616382402295,0.567580887812922,0.90473559164887,-0.394576922631522,0.19320442330704,-0.0531353227247351,-1.06209171354466,0.541346726826279,-0.039353094225287
245,245,7.77185472146359,0.569102065096289,0.904325657933131,-0.40695558604314,0.193658608618294,-0.0515866978664559,-1.19464610102394,0.619863242078344,0.000639165328528718
246,246,7.76750242598294,0.570601805783013,0.903910164267198,-0.413772817809796,0.19473851416018,-0.0489669668625226,-1.37490000305734,0.752468083736042,-0.0270991432261792
247,247,7.76313273235016,0.572096978408225,0.903476751836883,-0.4219293961253,0.196952636579081,-0.0479224703112848,-1.43000424850569,0.808253987004282,-0.152797545192067
248,248,7.75875259120909,0.573579107246155,0.903002068857539,-0.431627534741323,0.199638590105901,-0.0488525314864903,-1.26768413002879,0.859659362944682,-0.267619297389544
249,249,7.75435734986841,0.575053078895905,0.902469976002735,-0.440715511711834,0.20213722399211,-0.0517596657409991,-1.24888148610441,0.913365285508236,-0.426268014167728
250,250,7.7499204299771,0.576556903586299,0.901860783098582,-0.452571994181513,0.20572480679844,-0.0568565448772747,-1.14751478755997,0.944037234086327,-0.521101561463523
251,251,7.74542802509263,0.578142427417799,0.901194837254387,-0.467629293874604,0.208436792509394,-0.0604738307374386,-1.31661882310576,0.744194850490321,-0.32601050868212
252,252,7.74086269681431,0.579843582190077,0.90051399658997,-0.483827996025096,0.211888492114793,-0.0613356570317079,-1.32471191264628,0.843806561847514,-0.0476474302199414
253,253,7.73620848115673,0.581702913701017,0.899866416237356,-0.503421319430313,0.216261326635578,-0.0586810432424784,-1.22314281276419,0.744245187221373,0.376045215797868
254,254,7.73148231226339,0.583705138235269,0.899311106235319,-0.518979520017719,0.221004083504317,-0.0498503021312922,-1.16252657794024,0.620756188787169,0.984806220320242
255,255,7.7267522904854,0.585769496935382,0.898973037482035,-0.526371818353498,0.223193332755822,-0.0342523945816115,-1.46099986089192,0.568156016795113,1.54922075003657
256,256,7.72199837497243,0.587851265797437,0.898854204898973,-0.525905707681627,0.225320532796066,-0.016338598562982,-1.50383931305206,0.419938519237803,1.7269599541466
257,257,7.71709463651325,0.589901971228569,0.898875405671461,-0.528949869185019,0.224568164178622,-0.00156002910024301,-0.955411474062071,0.249418680313482,1.51180464302872
258,258,7.71200168302382,0.591885278001458,0.899007217413592,-0.532297321089846,0.223067602763518,0.0107922233476556,-0.524795091981812,0.0401341997692661,1.22690846838333
259,259,7.70674820000184,0.593740278936044,0.899239478229354,-0.532561922252705,0.220712444395739,0.0219003315525863,-0.431295892958561,0.151843247911109,1.01999243378512
260,260,7.70126796515804,0.595453125873731,0.899549310941039,-0.53687987226219,0.217571087658437,0.0299242738559833,-0.575424458032362,0.170151638948345,0.683259828931919
261,261,7.6953961347084,0.596960872548185,0.899891581659162,-0.553222526481679,0.211158329503686,0.0340734901681766,-0.592355632535613,0.166922506847841,0.426636140235201
262,262,7.68902838598799,0.598427291139543,0.900258506020771,-0.578214740655366,0.206275847608581,0.0367188792451095,-0.707569846484315,0.104273540660026,0.295506669402742
263,263,7.68215555930385,0.599945829629908,0.900758376980253,-0.607231232205067,0.203801857544593,0.0411503505012009,-0.733893252620238,0.170407069599346,0.367419122330662
264,264,7.67466097143549,0.601514511356922,0.901437625615386,-0.639451834406334,0.202924462502359,0.0484725816558438,-0.526699866940429,0.119104962802535,0.593110251463576
265,265,7.66676541612699,0.603136433259737,0.902265645355559,-0.67173724542213,0.201298064012765,0.0589060229121511,-0.309367081518889,-0.0118457673703231,0.870481529586789
266,266,7.65860496810506,0.604808991946889,0.903310534264159,-0.697205992506457,0.199130266288808,0.0751931213035166,-0.126121135366999,-0.108501601062272,1.2770609640247
267,267,7.65020658259172,0.606588832897438,0.904560444185757,-0.719464929743989,0.19707754350454,0.0928319809598786,0.167308713817322,-0.24713846503685,1.40478578050934
268,268,7.64168319656367,0.608474093613334,0.905993498187264,-0.742161858762687,0.195237516136589,0.106840264671013,0.389072667818935,-0.504814075319563,1.15300275807573
269,269,7.63303150194068,0.610451700872335,0.907506907116568,-0.759739682562681,0.194068370738828,0.120707903232213,0.198212097015273,-0.673594313182698,1.11034716018838
270,270,7.62414828482944,0.612584445741873,0.90908159443994,-0.772886760580411,0.192859224483769,0.128855562183621,0.303911192346588,-0.52048208808016,0.659914639659692
271,271,7.61634681408631,0.614991641907359,0.910276495659667,-0.763565737516769,0.199191546634187,0.127335012992633,0.476900473603576,-0.53120969406207,0.149675340201023
272,272,7.60788419890851,0.616581956263176,0.911716630583879,-0.757146554738509,0.196020888087467,0.124054769049943,0.588239583851373,-0.373645631961904,-0.202562971791272
273,273,7.60198191753215,0.619432661045031,0.912822396705624,-0.723262596412165,0.202010782860851,0.116278646721931,0.746082607432484,-0.330840346572891,-0.429450101821786
274,274,7.59590934423065,0.621971664552966,0.913779173182985,-0.692199793938974,0.203105152028802,0.105039529473834,1.08578548971496,-0.362163459355471,-0.595643376564855
275,275,7.59110515004764,0.624933483825627,0.914660050021741,-0.650439229933476,0.206322115108747,0.0911721672359121,1.12236759770274,-0.504228838262747,-0.910249627503527
276,276,7.58667970984902,0.627977975253947,0.915480926202116,-0.610088874174711,0.213496755760489,0.0759190498620546,1.41094574430733,-0.500594329361594,-1.04149825001599
277,277,7.58253763341728,0.631211782487195,0.91622736122106,-0.572770202321237,0.222554460608603,0.0632268375350663,1.26197015484428,-0.587805105471741,-0.979468301096509
278,278,7.57820767369789,0.634449966827524,0.916923910101379,-0.547591437460013,0.231379551075348,0.0549244439776597,0.951455019780516,-0.44052577438056,-0.645772083384019
279,279,7.57371704413214,0.637562034677104,0.917593005172067,-0.533541155520488,0.23704330171244,0.0491273416143125,0.686967621919819,-0.466966162870194,-0.473359536503751
280,280,7.56921697885812,0.64005820474098,0.918256279922405,-0.519693411779664,0.236845530078153,0.0481689831944717,0.0852116030006206,-0.538806392986919,-0.313609543119783
281,281,7.5645212484093,0.641874029202512,0.918915298501554,-0.507532734236353,0.22813522883519,0.0497703558844836,-0.297320338953418,-0.680864752716953,-0.113959743551851
282,282,7.55890457473479,0.643124310382566,0.919582213667367,-0.510322037012923,0.208477000381796,0.0562150816321041,-0.202680918207999,-0.879709685934822,0.478448969080847
283,283,7.55212855857624,0.644563265683237,0.920274621109574,-0.531385147445091,0.190985328800534,0.0648276849451926,0.0576666494822126,-0.85090219130783,0.761316185436069
284,284,7.54506553019989,0.646588314420709,0.920986610475606,-0.559811088372567,0.181012396351938,0.0717820711232017,-0.446233935198518,-1.29191045605875,0.529995311188142
285,285,7.53859198556488,0.649016190425511,0.921693316214458,-0.576388855055424,0.171410519808224,0.0733819134869037,-0.393475659847346,-1.59118940918519,0.0377569217177649
286,286,7.5329477162803,0.651192036114192,0.922330093947528,-0.56682734176325,0.168160140992946,0.0770093630160648,-0.0290750745702961,-1.59839463780919,0.175600421810044
287,287,7.52754052115484,0.653282407688304,0.922868336000934,-0.559822980481214,0.167145474111917,0.0722915578186006,0.115255013122162,-1.54548791265763,-0.186760882406285
288,288,7.52226101848311,0.655317655017407,0.923274889802812,-0.554466979449246,0.165642727722782,0.0620736474324936,0.141595766336336,-0.976681382554958,-0.500044282844173
289,289,7.51707974355086,0.657404646332903,0.923570485252578,-0.546509694636825,0.165929112962498,0.0504337341955353,0.249365384985697,-0.765189547720359,-0.608073003726646
290,290,7.5118893691674,0.659558592798267,0.9237677229152,-0.538859090625899,0.1657362433113,0.0366708603085197,0.336207339371803,-0.688860639281318,-0.764316832924744
291,291,7.5065610433161,0.661716540408474,0.923884740570718,-0.536151364345969,0.165293655950145,0.021619891989417,0.247900067633527,-0.557980147399723,-0.902859412608492
292,292,7.5009318342422,0.66392435443688,0.923934980545419,-0.537095389243856,0.164990365146274,0.00896684105729464,0.170447406560481,-0.384922784091208,-0.878567162544468
293,293,7.49507277421118,0.666169195369596,0.923941073120149,-0.54485485015256,0.165511363722711,-0.0023832483879503,-0.0604698677513503,-0.241446863435646,-0.922263424020347
294,294,7.48905347120862,0.668351345517932,0.923912845437444,-0.556784000508855,0.166233138115729,-0.0122881455758276,-0.23342716515502,-0.241574961589098,-0.913512137582331
295,295,7.48292871615296,0.670388291780437,0.923865427536225,-0.566912529886273,0.167162312322823,-0.018873646681584,-0.327603512032282,-0.309842008183792,-0.772562014810102
296,296,7.47671454356665,0.672196927428821,0.923801267402893,-0.57599265778626,0.166230389393068,-0.0239165576415453,-0.552815325344951,-0.358338857096296,-0.738789253901708
297,297,7.4705018961113,0.67378177057865,0.923719342747984,-0.585579508798147,0.163219745878024,-0.0275342934744901,-0.668037360543184,-0.299358321613112,-0.651971877722301
298,298,7.46441750097231,0.67530196976504,0.923632683102331,-0.591939979616593,0.161695994169844,-0.0292228655747524,-0.691656243027881,-0.253717863695611,-0.484707625401873
299,299,7.45858531827056,0.676868060432837,0.923549790022667,-0.592545476222615,0.160720426158754,-0.0293771231553039,-0.805862702934745,-0.203005984837243,-0.444272759550069
300,300,7.45303299418558,0.678439445960037,0.923463628883847,-0.589760252436032,0.160550733856982,-0.0294123868961692,-0.928608727125929,-0.231593678533141,-0.426789624742201
301,301,7.4477309881723,0.680076587388298,0.923338988682812,-0.586698422074502,0.15887137873031,-0.0276238552473197,-1.04647486071357,-0.265375540926767,-0.202181388906448
302,302,7.44257904174061,0.681647576564305,0.923162398996871,-0.586109935893861,0.152681883429508,-0.0275588667073846,-0.9764698295823,-0.350024356176414,-0.218651801225689
303,303,7.43756990340564,0.683107537562555,0.922920496001424,-0.58418289830973,0.143703489360646,-0.0273561373822112,-0.954049162138423,-0.498601684691593,-0.100328118454471
304,304,7.43271709839372,0.684421220262254,0.922619562750687,-0.579835861907864,0.132946525783977,-0.0255788483864468,-1.01910366251491,-0.490094695302866,0.0795264262173879
305,305,7.42799157548089,0.685624892559767,0.922271490436307,-0.574428815121499,0.122049017449962,-0.0242371014593646,-0.991650954502297,-0.532512452979892,0.133648977188435
306,306,7.42338025162465,0.686781555848463,0.921881055032702,-0.569655418206678,0.112157524313158,-0.0235917420519656,-1.13015974448017,-0.401366591110658,0.121894525354109
307,307,7.41875631523403,0.687957588448982,0.921448246882524,-0.564192677767087,0.104837371822332,-0.0238305375627866,-1.05469168110161,-0.308806318844591,0.0950706101625261
308,308,7.41398094731845,0.689270386059776,0.920965696027921,-0.558530091062973,0.101480428823004,-0.0250524189363994,-0.830161196431716,-0.291083785216276,-0.0202533341286701
309,309,7.40893193406507,0.690735443172446,0.920418328642422,-0.553939605787069,0.103136463125691,-0.0283854431287205,-0.631878925134099,-0.327577917250985,-0.164655160732821
310,310,7.40360706718287,0.692421626183427,0.919806190156854,-0.549014520890716,0.110773473658599,-0.0319013974118379,-0.691285880945654,-0.223187594694411,-0.29669217966253
311,311,7.39802064061554,0.694348955939708,0.919130378812594,-0.547148772216854,0.121922804351351,-0.0354153938910972,-0.746083872054896,-0.042560001432536,-0.356537809665404
312,312,7.39218992070192,0.696549823375601,0.918382031253821,-0.549331091484292,0.135002803425422,-0.0419515591697745,-0.678731947973613,-0.0478271967659515,-0.578255466864958
313,313,7.38615869946307,0.698953651729464,0.917551447890523,-0.553090721620235,0.147433390951305,-0.0513327444550825,-0.545051387025054,-0.33964347581519,-0.807320361583087
314,314,7.3799911707084,0.701475420425967,0.91664201677963,-0.55942573860984,0.159959509894926,-0.061172246387974,-0.93672392050754,-0.294937227465141,-0.921578964439319
315,315,7.37368207505568,0.704007835845665,0.915637312524714,-0.570776558710557,0.170229351930554,-0.07300946384702,-1.0125542988142,-0.202777952491509,-0.99749515626064
316,316,7.36729120186621,0.706410430864944,0.914732903675075,-0.583616172714838,0.175631443255789,-0.0821060967569227,-1.37612838537091,-0.138634828472829,-0.998292240162449
317,317,7.36081777045831,0.70859457043321,0.913875660618132,-0.599031354110185,0.178300381700333,-0.0915685711936379,-1.64821426192285,-0.0119795152028195,-1.15271187213918
318,318,7.35417779213228,0.710458405776097,0.912990699307965,-0.626552804961466,0.176296766001543,-0.105521626510387,-1.51940767177914,0.208208922999498,-1.4065350644803
319,319,7.3474160642446,0.71205161575926,0.912074472870498,-0.652581932923496,0.170542823819585,-0.117559413369661,-1.79254914760696,0.363772523553692,-1.46070617003435
320,320,7.34052535074857,0.713441958404264,0.911131409544493,-0.67573576348647,0.161996751524069,-0.126043842919812,-2.28769600736662,0.450800930605219,-1.36620128716473
321,321,7.33344549672089,0.7146130426361,0.910103795497902,-0.701312894336966,0.148986726929918,-0.13557876795301,-1.96127793789393,0.20715320792521,-1.37208869769687
322,322,7.32620463728983,0.715700501437339,0.909008888678068,-0.725843745525786,0.133106963760853,-0.142818207764633,-1.54962432138799,-0.247284580700087,-1.10907902085953
323,323,7.31867503100435,0.716771204131992,0.907856571887408,-0.751211045357317,0.119569216549061,-0.143827952292637,-0.890955360591317,-0.983729736310831,-0.227633226617721
324,324,7.31070107601478,0.717947073887332,0.906724809170137,-0.783291289242662,0.11154809199162,-0.135891881452749,0.0240063382835921,-2.01869924946738,1.07601121262005
325,325,7.30256413899026,0.719264573302327,0.905897759386354,-0.792685109746758,0.110406125612534,-0.104384192262052,-0.839721307853816,-2.39319627112171,2.89129414845343
326,326,7.29465196155363,0.72068693318305,0.905638459869654,-0.774931102573221,0.107419699346445,-0.0450956490442742,-2.1789999747643,-1.47329956822166,4.88461611648894
327,327,7.28667468769759,0.72233000492868,0.90604131996021,-0.774967901330803,0.114306543930495,0.0228427627749209,-1.22961523264217,-0.453073554598383,6.13217212756224
328,328,7.27882782621958,0.723977743724142,0.906971227722015,-0.772785188765387,0.133201216493191,0.0789314391159929,-0.148087457566522,0.73108283612259,5.2104677239077
329,329,7.27148863751056,0.726092384977377,0.908723047932608,-0.738666545713672,0.15507749335834,0.126707931869404,0.47971586223626,0.199322390655833,3.47324043418697
330,330,7.26021280553087,0.726276695879507,0.910485826643266,-0.769164475279361,0.154908121210868,0.156723595877089,-0.507385931807474,1.37997475008464,2.35453062005229
331,331,7.2526718141502,0.72810941226442,0.912318544429333,-0.779748250184623,0.157837348618199,0.170050911835989,-0.133530615777284,1.17224841044042,1.10477202556216
332,332,7.2425218605679,0.727288481023818,0.913857567646771,-0.812601358395984,0.145604878855253,0.163494640622336,1.16258681752883,0.214903755694126,-0.310197098322166
333,333,7.23472859581736,0.728152189648161,0.915395020815569,-0.81323505103863,0.141504212787736,0.164090664043347,0.0103943001212219,0.839489982470236,0.0807103916829315
334,334,7.22695590516587,0.727739441847471,0.916499869860079,-0.852130319908966,0.11086553493041,0.13646927577315,1.75226581226441,-0.361742759309408,-1.36119250897151
335,335,7.2192805627935,0.727937278633931,0.914792936220998,-0.833805094887285,0.0817308294201722,0.113021812944736,0.010257816487115,-0.170612246394196,-0.520466972908483
336,336,7.21221278054861,0.726974194683908,0.915241123129214,-0.834492193542051,0.0598555025244284,0.0941684271013914,0.554193694568898,-0.397878643443428,-0.822883332804289
337,337,7.20481695681742,0.726948678589095,0.913872782000714,-0.811669609627546,0.0330517377048807,0.072778280460532,-0.0807728469815745,-0.395875373907315,-0.472637753011961
338,338,7.19767452973311,0.726538083219289,0.912829080144591,-0.774344051328482,-0.00360191172982905,0.0506294216188173,0.209821336005703,-0.0485651601142578,-0.615513093554871
339,339,7.1907466268146,0.725623919472588,0.912008944262194,-0.742237595082429,-0.0332225374319721,0.0299917917775508,0.642025063872949,-0.148382826854406,-0.84862136359695
340,340,7.18403938400898,0.724307433335081,0.911350300019809,-0.717083037955998,-0.0566156007079575,0.0126730518583684,1.0102181489794,-0.286380551872102,-0.910752423002352
341,341,7.17748833947159,0.723160830009609,0.910792542503495,-0.696970580809883,-0.0703350907645008,-0.00114072342218145,1.3083689771498,-0.297934925653855,-0.837408693715815
342,342,7.17065785312438,0.722350840209975,0.910319070890177,-0.683316614311951,-0.0728920650972143,-0.00971777689653426,1.30574214061626,-0.328596931147375,-0.572706620577306
343,343,7.16344386678683,0.721889241395165,0.909956649908551,-0.680888001117457,-0.0667285138021819,-0.0130006855046553,1.2110038843395,-0.200610546143119,-0.226504841128915
344,344,7.15603434418615,0.721567816991297,0.909715530428195,-0.687056451539188,-0.056508985718455,-0.013581337287396,0.994846156621419,0.0820135087843251,-0.111635106313585
345,345,7.14879243434367,0.721640022891394,0.909884493944644,-0.694308737488578,-0.0442488484674173,-0.0127335857639157,0.838845228967738,0.232928277654688,-0.0527455338738993
346,346,7.14228575515268,0.722182582081192,0.909965113702548,-0.689824086785979,-0.0235462980432415,-0.0087654398899082,0.448637004853765,0.400783451349474,-0.226106761040668
347,347,7.13611377028688,0.723795082088022,0.910174121294781,-0.678243441752723,0.0111913036428409,-0.00121561582001472,0.187641720229327,0.545298818876309,-0.270757074710251
348,348,7.12958787836653,0.72629232349003,0.910446074147829,-0.674044058056868,0.0573848076330003,0.00647836311401424,0.0839153309207329,0.586902183834855,-0.0206423678917515
349,349,7.12201337356543,0.728926431003013,0.910666489138114,-0.690227536081347,0.101804685479624,0.0166076018118747,-0.169784848673461,0.773247955689736,0.613752342274289
350,350,7.11298936617492,0.730751823477401,0.910680166694049,-0.726733935827354,0.125253336720862,0.0195097456526423,0.103886287288093,0.882789498866053,0.431155501869965
351,351,7.10394025004,0.731569437435517,0.910368234357497,-0.774279760277921,0.123540292748051,0.0166042036826064,0.196194717700107,1.28012938499928,0.26477389795657
352,352,7.09475164705117,0.731403843498509,0.910121794648063,-0.803527718197807,0.105683938986642,0.0102141669152262,0.435091161509173,1.01695493073485,0.263252991580578
353,353,7.08678523841695,0.731102478597587,0.909943192045605,-0.812137792999601,0.0852707057694502,0.00334540994465038,0.0796450776135958,1.11134905063876,-0.079251842661008
354,354,7.07949193370415,0.730946504804209,0.90983405777343,-0.792160414734626,0.0713700335844726,-0.000824201692872694,0.458012894780954,0.858850762470519,-0.0851636489044766
355,355,7.07203952789344,0.730578067176175,0.909688307290885,-0.773632555434138,0.0573708578285147,-0.00259218999701852,0.466233966206691,0.809695299511997,0.0754106239818761
356,356,7.06438527931592,0.729744904999986,0.909470413264147,-0.766335056730537,0.0392795395727045,-0.00708758500563218,0.470762880123288,0.751233734525179,-0.0965324506684082
357,357,7.05695306236795,0.728348696591852,0.909204059356841,-0.762207822928323,0.0168646542129365,-0.0155213780009233,0.327065918848934,0.705695074282026,-0.477969967743633
358,358,7.05028694957923,0.726646613673624,0.908970063006733,-0.749149200999189,-0.00823304328578204,-0.0244332018509369,0.206231289533601,0.667723996701347,-0.64170885672852
359,359,7.04440031690631,0.725063354814823,0.908799416682328,-0.7261304346379,-0.0260373215074106,-0.0330348081088344,0.0599328867634753,0.621428459014981,-0.730962731670672
360,360,7.03887150699736,0.723885319130949,0.908659363681427,-0.70048519990708,-0.0349844477064123,-0.0402769619117059,-0.155881338066089,0.517821749244494,-0.752332951987184
361,361,7.03318142264249,0.72337009331745,0.90851536647228,-0.6827946426251,-0.0313474455983309,-0.0461503169084021,-0.466375092481189,0.554280190340571,-0.79031783194239
362,362,7.0270861634015,0.723530275031598,0.908343834587949,-0.677240518310947,-0.0170168120852627,-0.0503139441814227,-0.503279110839671,0.586304794646059,-0.700514111211601
363,363,7.02048533260635,0.724154329136364,0.908142253314663,-0.681542606052541,0.00207926015003731,-0.0521370570451324,-0.644110820439093,0.655901699072934,-0.513137241984257
364,364,7.01334787377666,0.724916705487505,0.907884977502165,-0.69240814188615,0.022499255122579,-0.0527941800997733,-0.683276347067504,0.559434398141795,-0.392704850805318
365,365,7.00567351944088,0.725615623004725,0.907594734401862,-0.709737127369866,0.0401460151647435,-0.0525610747982956,-0.657418133490398,0.566520124450013,-0.2259457419405
366,366,6.99738171920987,0.726239203303851,0.907215602436282,-0.735988707932693,0.0542809394957749,-0.0547579683694374,-0.670348974342914,0.599770539768148,-0.377409151073954
367,367,6.98863572301774,0.726897298929627,0.906775499222643,-0.762950928033379,0.0668271727499358,-0.0580454823407768,-0.611895244080616,0.635053314384523,-0.499292829514066
368,368,6.97970216165011,0.727639109974631,0.906235496723993,-0.787734968605036,0.0781294866768181,-0.063084679654758,-0.669433686849396,0.656266051027828,-0.668824169779659
369,369,6.97077981948538,0.728420151873669,0.905624484866208,-0.808592071275218,0.0887589308131042,-0.0697323134319425,-0.624995105216646,0.720583480317644,-0.804048160894447
370,370,6.96212532671894,0.729150843015069,0.905053608494875,-0.824116930545231,0.0986318186004757,-0.0768158439147102,-0.677942683164853,0.773429635841784,-0.855792956018794
371,371,6.95394078300986,0.72975779853266,0.904426125702918,-0.828608008321048,0.104626550400194,-0.0830318093174028,-0.831070586668141,1.00306469411824,-0.871337413549888
372,372,6.9459837614195,0.730185974726749,0.903747032542046,-0.824271943898462,0.107253470736598,-0.0884898665547745,-0.631499787185457,0.979165993165909,-0.762484512410534
373,373,6.93843153371039,0.73053292569372,0.90301874642779,-0.80649877055325,0.10785657984518,-0.0891370758864975,-1.55873713461082,1.34202567881578,-0.651134768762489
374,374,6.93114204375008,0.730801689282857,0.902233269824765,-0.790518834519844,0.106515801922317,-0.0953639413142088,-0.940272128635953,1.28236350578681,-0.994202837628027
375,375,6.92427136091346,0.73112418492016,0.901414168025326,-0.769866435483964,0.105201051601024,-0.0974766572145743,-1.45574739053226,0.914320522087147,-0.650301286167734
376,376,6.91764528123197,0.731504033967371,0.900515167553864,-0.751365162645034,0.104845567495315,-0.103998414565201,-1.21238726388303,0.872317419736731,-0.939487804577666
377,377,6.91116239758944,0.731990903085814,0.899500107701999,-0.739505943853678,0.10327923017338,-0.111750658378184,-1.22649532329579,0.528294885138974,-0.987698544229402
378,378,6.90476302535625,0.732661214708483,0.898410545409546,-0.733791486262639,0.10352287173371,-0.119838225730247,-1.20326219138864,0.101711781825233,-1.05751426116101
379,379,6.89832178706579,0.733556635052552,0.897292498119005,-0.735427085002804,0.102510849361193,-0.124916944357733,-1.58854771851884,-0.355058406594094,-0.901905060636671
380,380,6.89159979940765,0.734693996946542,0.896174427649927,-0.74898758266519,0.102300185777763,-0.125591487116926,-2.49647124187115,-0.546611003156377,-0.577361220978294
381,381,6.88440663592647,0.736109099773683,0.895068112339838,-0.767615560617294,0.112262068605391,-0.125019499323714,-2.80900054564532,-0.27214137345454,-0.467838335642136
382,382,6.87669680718488,0.737775142712652,0.894089398884721,-0.781907474121135,0.13460569950324,-0.126490901956699,-1.64315385011479,0.416959407745364,-0.632602263334907
383,383,6.86850174533294,0.739524292281697,0.893098460369656,-0.802596684494752,0.159225694173095,-0.124843160399644,-1.5680082084589,0.647801544821506,-0.338993145551561
384,384,6.85973112914101,0.741317835998862,0.892241747666989,-0.835349173911039,0.184074203949386,-0.119227004554461,-1.50491822896565,0.702227444136793,0.182938714952416
385,385,6.85039363133791,0.743053252079428,0.891597914131726,-0.869443185392174,0.202452594965021,-0.0965365057247858,0.0700106415643494,1.1416917827215,1.96212051766598
386,386,6.84075333807289,0.74486306214783,0.891406010267815,-0.888501272129463,0.210808691456962,-0.0569140631787227,-0.00832141560712727,0.840249513905757,3.39257130658785
387,387,6.83095265254099,0.746792328746671,0.891785758790698,-0.895423120504972,0.212072354466833,-0.00454355247094342,-1.1130467190968,0.292485773570992,4.64365582465175
388,388,6.8208649259699,0.748873866952669,0.892661032659558,-0.9144974893147,0.211535483264072,0.0511427537941065,-0.31273999609872,-0.0307425525478472,5.06660169367184
389,389,6.8105663670097,0.750998552423273,0.894007541083408,-0.93717034557899,0.200925461878463,0.110307506431325,-0.105188313304277,-0.446186380346158,5.19707092607071
390,390,6.79988133508482,0.753152099138171,0.895672894566299,-0.947040915012481,0.197485869707046,0.160787636528868,1.34241708245852,0.349145154939307,4.46713083468673
391,391,6.78898241005626,0.75552835322097,0.89753595994998,-0.941143930457788,0.188856651682738,0.18388597873913,2.78225940852013,-0.927515050908649,2.26997986154008
392,392,6.7789221552294,0.758135029046096,0.89907058232172,-0.924642139205166,0.179618327386952,0.198700360667068,1.94739516691576,-1.07242587281109,2.13065046974534
393,393,6.76940539002976,0.762323866274034,0.900476874548786,-0.915557624583177,0.191801076720881,0.210260328320509,1.12073644572537,0.236213584932919,2.10040513686724
394,394,6.76188668054459,0.766836997844994,0.902595558436359,-0.880557577336024,0.214892807676136,0.211646221617271,1.81062097120386,-0.360189302356105,0.843451937819616
395,395,6.75325345891362,0.771920635458643,0.904477407422886,-0.857098743147458,0.249877375555273,0.196429104312179,2.47222862735075,-0.632709543323697,-0.603027972040579
396,396,6.74566356757834,0.777605655826412,0.906142523073841,-0.835676097132215,0.295143974579243,0.169600771016175,2.73669084889214,-0.512731690826735,-1.61705576407791
397,397,6.73856213370075,0.784251213200214,0.90757945914042,-0.814678846747605,0.354875665024579,0.13977405912127,2.75692749574875,-0.575321937324343,-1.96346428970257
398,398,6.73216860124145,0.791601241967259,0.908880348061023,-0.783247155628302,0.421600253856743,0.114328639505623,2.26498689002787,-0.554333430069171,-1.86748017131162
399,399,6.72606188191274,0.798872696750341,0.910100866624612,-0.75168252793469,0.481368856715433,0.0954495508325625,1.68190521886088,-0.505271521776369,-1.60694119644131
400,400,6.72028065143173,0.805068361547933,0.911278323898533,-0.720512579398477,0.516500717143854,0.085626508925148,0.963313473674782,-0.423984753045797,-1.20530625104525
401,401,6.71448834515208,0.809527284353092,0.912463338589249,-0.690647689274986,0.517398567321689,0.0842682187763898,0.633339290533466,-0.58927999510192,-0.58933710773445
402,402,6.70868577875214,0.811889381151572,0.913694637762724,-0.668284474714318,0.482050226674741,0.091125822011238,0.310708367415952,-0.73870792475238,0.160341174516065
403,403,6.70308151556661,0.811771438288194,0.915305825131357,-0.649241034523833,0.423030412631257,0.0924560700081202,0.226294921568489,-0.594338164259822,0.0213271635034712
404,404,6.69785466413797,0.809898956987854,0.916446062714954,-0.623093655864954,0.329728535338282,0.0912946713508411,0.170967474919838,-1.07418220942789,-0.400693278838443
405,405,6.69161231677995,0.806740357137587,0.917534522328924,-0.623842665448044,0.216308765609943,0.0923793728914631,-0.277425146209615,-1.54253998034378,-0.195169634475081
406,406,6.6834515012416,0.803769761199487,0.918639417510702,-0.651317295046638,0.117644964658433,0.0991969603441607,0.44812283034777,-1.6646392677555,0.445575223900785
407,407,6.67428058756613,0.802211653273346,0.919681710462861,-0.694089558186693,0.0567750272173443,0.10041212027578,0.881914035265423,-1.7129114474224,-0.038215151309706
408,408,6.66543919777438,0.802266891229413,0.920641515466324,-0.721826294338334,0.0340561147145521,0.101829471751174,0.79091354370105,-1.7006378639097,-0.0538477317061706
409,409,6.65707680714061,0.803414085622136,0.921473813553281,-0.731963004880323,0.031579016122668,0.0972512263251009,0.577416639685379,-1.60387371675358,-0.314472051599482
410,410,6.64899592773094,0.805058633259133,0.92216437050165,-0.736192384910333,0.0419235075203176,0.0873028895699485,0.284490181550123,-1.04747650945132,-0.583173887908101
411,411,6.6411468553458,0.806760080255074,0.922722940149932,-0.738720654226409,0.0535433438673568,0.072013696536161,0.255945729202494,-0.532486393329372,-0.934192228460816
412,412,6.6333915546705,0.808460906196423,0.923111009739083,-0.735640601315421,0.0638929638752021,0.0561286711067312,0.443937289446099,-0.32598730230935,-1.02311140182644
413,413,6.62562645228719,0.810221430769951,0.923423534485826,-0.730506415377246,0.0744708480814192,0.0404548081900993,0.459461858411497,-0.325099722299024,-1.13112293017528
414,414,6.61777158398207,0.811911807333976,0.92374404294193,-0.730433608522249,0.0812788142013433,0.0245653987804066,0.378318521276777,-0.435074309771939,-1.2704735614184
415,415,6.60972532570739,0.813519187666825,0.923994138480799,-0.735821002506842,0.0868862659920649,0.00900054471993276,0.355647603006961,-0.525858602904061,-1.38076182940507
416,416,6.60140540665048,0.814958279513067,0.924160106335087,-0.747011477404248,0.089620077878002,-0.00574586005700034,0.478783466187117,-0.573018304345533,-1.34175934390223
417,417,6.59292130317826,0.816431075458729,0.92424287136652,-0.763865083167529,0.0927717681855673,-0.0176570308605026,0.228734641532879,-0.533543231318203,-1.16927716264442
418,418,6.58450710439335,0.818279051534569,0.924275522488298,-0.778844710783235,0.100738964130279,-0.0239329333683052,0.00394078584480275,-0.517812239288981,-0.842360528340079
419,419,6.5763348982327,0.820611600528706,0.924282291854016,-0.787600520625245,0.114551091770973,-0.0244166119766446,-0.252674785100726,-0.700697887854914,-0.475670724944084
420,420,6.56842396945893,0.823211489025385,0.924264697092475,-0.792264567529601,0.127334775975161,-0.021730977255409,-0.378383442462596,-0.899056037618539,-0.147299178576202
421,421,6.56079939461058,0.825864125252661,0.924231467027623,-0.786407469421213,0.138106062186452,-0.0161546097104833,-0.936193691876153,-0.807660976188544,-0.0224492527322152
422,422,6.55340356679329,0.828630870840496,0.92414879089164,-0.78210800795941,0.144673072518896,-0.0121305280682444,-1.17794344874817,-0.801536183947363,-0.0231182927177827
423,423,6.54626761429082,0.831080352006949,0.923975515106085,-0.775826809283008,0.147322390014447,-0.00992137344598715,-0.9973621937234,-0.809670964955159,-0.0372763293975315
424,424,6.53958528929862,0.833296009483722,0.923718198163415,-0.763758841266889,0.147535714902902,-0.00857059055545241,-0.857738815118508,-0.672066128909325,-0.0515740873699834
425,425,6.53345332127101,0.835206927464426,0.92338257876876,-0.744255373856805,0.144651485607106,-0.00885919826669111,-0.85810920031695,-0.501499535442415,-0.140008428563822
426,426,6.52772888764263,0.836798158704744,0.923073092818436,-0.722475839833425,0.136876543558474,-0.0129552468903153,-0.724352452334265,-0.459984876345016,-0.418973368978215
427,427,6.52217052661747,0.837996301048846,0.922747366822455,-0.703871365746501,0.128157658314485,-0.0191127986258065,-1.07472061660839,-0.409497796142447,-0.555646727581488
428,428,6.51666336055258,0.838998163798477,0.92230738951175,-0.687272839257349,0.117084074212032,-0.0256508457188646,-0.576683100516075,-0.503070725030761,-0.456921482238467
429,429,6.5110038616923,0.839845257086505,0.921935285875911,-0.674952009694069,0.107010455510146,-0.0316404740453376,-0.784554231321783,-0.415628956937176,-0.716843761137637
430,430,6.50508652342057,0.840610036230031,0.921438750809995,-0.661042255818982,0.0980433386897439,-0.0384163429243707,-0.353395950531449,-0.454679504236369,-0.562402528824339
431,431,6.49868933423218,0.841052157662725,0.921714169601817,-0.6468248096401,0.0901404086698706,-0.0447302140159739,-0.136548215935098,-0.93742239822741,-0.58679778944359
432,432,6.49229105816098,0.841921368255032,0.920905750459499,-0.642411322963003,0.0808556921964874,-0.0546715765235894,0.140316014491431,-0.734707407224959,-0.771569895639669
433,433,6.48573472147166,0.84279104145569,0.92000505050882,-0.634917128581976,0.0764796127188729,-0.0559128288260561,-0.665266350941242,-1.17364565672621,-0.253190485159179
434,434,6.47894353496912,0.843613833296707,0.91907415375339,-0.642840514103821,0.0757243519555145,-0.0648730265078487,-0.622437593094498,-0.544214131050652,-0.461718920931417
435,435,6.47199668197743,0.84441011209745,0.918144763719084,-0.648389591373483,0.0762074871023524,-0.0735898553278776,-0.978661995516509,-0.117406728767186,-0.556080231259366
436,436,6.46494460809675,0.845181727795775,0.917169643110164,-0.662577280675395,0.0794811050757682,-0.0823346558103313,-1.41024984190809,0.282013854353951,-0.681617715115139
437,437,6.45746332421603,0.845916384906652,0.916315522398129,-0.684959143766952,0.0802651241092227,-0.0907687353890122,-1.68155956382293,0.534602228530838,-0.785135591799241
438,438,6.44970093644325,0.846634863024713,0.915481848619892,-0.712460682478113,0.079094006968401,-0.0981128311277669,-1.706119070903,0.637461534332369,-1.00717747660626
439,439,6.44155114971851,0.847399677956918,0.914829550772228,-0.73855914710227,0.0732641716789747,-0.107052174783011,-1.01751710586604,0.259302886791479,-1.28158457831474
440,440,6.43293881241032,0.848226695221892,0.914252369519043,-0.773559469923146,0.0671012325213569,-0.111022614416591,-1.22606302807539,-0.43020881610413,-1.01434165622654
441,441,6.42392449117015,0.849211207898475,0.913724521902498,-0.810221666645699,0.0630346504120281,-0.104974774647768,-0.434290648848224,-1.55029669231349,0.0894854480473415
442,442,6.41453986883732,0.850163536486539,0.913388430513712,-0.841715465087424,0.0606093679871301,-0.0859361973639897,-0.0337572011755121,-2.38059017470224,1.38007711083201
443,443,6.4051517522623,0.851799747788449,0.913406788248596,-0.848314649195978,0.0644683265444081,-0.0476884867754074,-1.00374686911209,-2.13917259686442,2.96664436598593
444,444,6.39567512280671,0.853304511373302,0.913880742825652,-0.848682703971696,0.0694150714494862,0.0130195558621067,-1.30386343094256,-1.67063584738456,5.0874398129389
445,445,6.38619977781046,0.854424091185032,0.914803306829135,-0.8539721474649,0.077023658132375,0.0717891149879007,-0.0775174678480628,-0.0813297174853606,5.31035003676444
446,446,6.37706127586704,0.855230991690769,0.916112211002316,-0.84143953698509,0.0816869210011075,0.114822110545068,0.788268830223355,0.138285717018777,3.96040343033441
447,447,6.36863461318644,0.855887396624169,0.91783703154705,-0.80778575132139,0.0818378934348305,0.144725874968319,1.15725564649017,-0.308562974851727,2.35979206749622
448,448,6.3563788607809,0.85503051667931,0.919534616263486,-0.841045932476208,0.063552442156171,0.160995058954014,0.0893272313470575,0.679748549125673,1.41384784710564
449,449,6.34795447178501,0.854695422288217,0.921102414844129,-0.864326362604483,0.0465712733369111,0.163063251705132,-0.177494448186794,0.954562359462283,0.340656919765547
450,450,6.33742760246562,0.85349199943405,0.91853110641871,-0.901468620787487,0.0207097323341471,0.130389862812795,0.948760195348999,0.71392108092767,-0.671524700830929
451,451,6.3279059204871,0.852152568036461,0.9194899481698,-0.926881102463094,-0.00521473326638218,0.106674701351139,0.926751237987448,0.60774585707676,-1.41031402193965
452,452,6.31836769800982,0.850539514924612,0.91759852984448,-0.946655584766484,-0.0341252239707398,0.0679611391437062,0.960163586615511,0.34402586505416,-1.82951732790886
453,453,6.30937397306454,0.848840662448031,0.916033974314159,-0.952647022774818,-0.0596774256772977,0.0321875230730738,0.919458604516377,0.00832589484134295,-1.90053732505716
454,454,6.30059533108178,0.846932507944471,0.914589237360453,-0.949451573252668,-0.0840889783110719,0.00197202348173877,0.792364316623203,-0.218538936327839,-1.75294785240068
455,455,6.29232516006679,0.844888059711446,0.913191507718615,-0.932214824668286,-0.107368487938882,-0.0206782428178816,0.585404128548959,-0.356543933223844,-1.35056398324586
456,456,6.28465823171794,0.843097225165342,0.911860858448332,-0.901830285707299,-0.122136979235336,-0.0358509489926317,0.604171425557735,-0.289389587728474,-0.871664485630839
457,457,6.27768528432292,0.841955307129607,0.91069873474725,-0.861488611449456,-0.12596967486666,-0.0426085875532362,0.828249726986222,-0.427073549369288,-0.393260732391186
458,458,6.27101102476709,0.841612107415739,0.909790649631278,-0.820868389702656,-0.115573619452591,-0.0405419041138067,0.838968018197408,-0.542914702407293,0.284962635426807
459,459,6.26449033307241,0.841899541164649,0.909223798488349,-0.779801793348062,-0.0955534551936957,-0.0292570160842638,0.822494635206525,-0.466897455201476,0.847797346602749
460,460,6.25790126441069,0.842773778835299,0.908957576259543,-0.749526941919596,-0.0659442008893664,-0.0173643524406915,0.89111404164672,-0.15144449415601,0.935534334851574
461,461,6.25173019144267,0.844178072233386,0.908991793755664,-0.71416455522746,-0.0291713669721879,0.000155858918940454,0.577885029601586,0.00822620414573333,1.14485335062208
462,462,6.24570121084378,0.846121371350901,0.90925006437009,-0.685744310501662,0.0125615559423378,0.0147023946194953,0.521422747376093,0.413070090281357,0.980567869477431
463,463,6.23916526568636,0.848205534190374,0.909634974852634,-0.674141647912869,0.052705424406258,0.0307139758712253,0.411657519705134,0.599617935729454,1.27011988794091
464,464,6.23157352882812,0.849619829087338,0.909976962776367,-0.684739184380875,0.078344434808695,0.0375410079241815,0.488594283716149,0.795352092875547,0.676933599477447
465,465,6.22287280312041,0.849624115268754,0.910100428208948,-0.717604756071771,0.0775303791430006,0.0380158768963243,0.759678198415553,1.05328330295018,0.342540145115709
466,466,6.21364339921199,0.84811457794609,0.909971283318653,-0.757993490333673,0.0468910537285769,0.0348038417446347,0.739699124191559,1.04066338763288,0.217169773363959
467,467,6.20487997507812,0.845626055824289,0.909672173311985,-0.793539184608461,0.00307707059445056,0.0241620792489561,0.688695180527045,0.997270063504153,-0.189058515795
468,468,6.19746366457282,0.842895326226031,0.909431081157345,-0.797359879783781,-0.0378590930387722,0.0129914775202792,0.730884545803415,0.986058091695191,-0.437085474642172
469,469,6.19097527872903,0.840486084009616,0.909164815161881,-0.774481595871266,-0.0655647282078571,0.00328542414098043,0.685243229920987,0.942742775487307,-0.488992580357176
470,470,6.18455963098389,0.838229440869657,0.908886059140991,-0.744149098732156,-0.0846209974094761,-0.00382679803259272,0.789826310590417,0.698406464003058,-0.359334962907911
471,471,6.17781577349158,0.835883380967726,0.908569612709006,-0.724535774559067,-0.103023395656627,-0.0109401870680434,0.741706473299481,0.528721131987352,-0.375332890140308
472,472,6.17086182753615,0.833387698583623,0.908221282870915,-0.714222931843568,-0.121719685636021,-0.020567443278175,0.581881157750323,0.443981785184021,-0.666426542296956
473,473,6.16414296758055,0.830721604220571,0.907874787284244,-0.703640968909907,-0.139901037796928,-0.0302236520584527,0.460045147441947,0.403682418876466,-0.790529215858583
474,474,6.15808922557515,0.82813998600745,0.907597185329063,-0.684322778902156,-0.154124021989956,-0.0391667907330197,0.362132897978366,0.481193425635454,-0.838745752637984
475,475,6.15270885548752,0.8259955028778,0.907426423010236,-0.656032935810553,-0.159710496179811,-0.0455718714722637,0.132255693720914,0.403550460211087,-0.789829856431297
476,476,6.14753352023645,0.824543596013066,0.907337626853965,-0.631511721398118,-0.15150759691949,-0.0519042586937633,-0.0666299495619802,0.397761531400813,-0.947860259585244
477,477,6.14213799898798,0.823884272371951,0.90730469528965,-0.617641403464267,-0.132434271149089,-0.0558395951964671,-0.0790181093600536,0.347707124503159,-0.930240263923511
478,478,6.13638867054207,0.823803222008242,0.907292599763646,-0.611544450526311,-0.105320718282581,-0.056716621133904,-0.0583180028889357,0.432221015704614,-0.753253114063573
479,479,6.13029552628402,0.823881991546039,0.907254957770627,-0.613055738445701,-0.0809050238464004,-0.0551796030977265,-0.167482127483194,0.416325182997914,-0.450992355208899
480,480,6.12372044765678,0.823751737630569,0.907122250469595,-0.626469465666479,-0.0627602509832272,-0.0552595219919534,-0.214147084691186,0.450055218093993,-0.381709046251082
481,481,6.11658117949719,0.823172713403963,0.9068531410408,-0.645973130820367,-0.0540121007959624,-0.0564937460975912,-0.250673269137749,0.443515627289923,-0.382404859634909
482,482,6.10888649986531,0.822201524664759,0.906446538693819,-0.670424150197093,-0.0529392436949498,-0.0585225815643832,-0.299319326964492,0.412320361169729,-0.35237754365721
483,483,6.10085653284269,0.821060158911914,0.905982648966032,-0.69367317825828,-0.05621215984704,-0.0604077441424723,-0.426145985574675,0.548691115068013,-0.357829150967528
484,484,6.09291629568706,0.820070807889266,0.905471573561693,-0.711430513989927,-0.0555583975840079,-0.063363559453888,-0.420597872906236,0.629072327363384,-0.460498894709252
485,485,6.08506868275462,0.819170528382472,0.904948364579348,-0.720981384740456,-0.0537394594082397,-0.0653623151052489,-0.590753844145385,0.60596253361323,-0.440469246345945
486,486,6.07739143128589,0.818388635472027,0.9043990745504,-0.727799715610527,-0.0497554343641976,-0.0688587290310943,-0.663171114019652,0.611817121203535,-0.57031503209686
487,487,6.06995275721295,0.81764705778378,0.903870252294872,-0.734969356934325,-0.0456551665263544,-0.0736773782928438,-0.501693657505845,0.592450158898378,-0.681971818931439
488,488,6.06270231450813,0.816948009926515,0.903321297888024,-0.734123444100971,-0.042049265994867,-0.0778955226635026,-0.650608530235589,0.635278160566392,-0.694291155566129
489,489,6.05559858603697,0.816212983273893,0.902624993557133,-0.731913248132843,-0.0426012913339919,-0.083286234914556,-0.709318094675057,0.444158999619801,-0.699706838010031
490,490,6.04856831791455,0.815315778905829,0.901809902122744,-0.7313303719407,-0.045274636027072,-0.0894340642317081,-0.659797271281332,0.378806237710393,-0.681523620505274
491,491,6.04149649622177,0.814316606963248,0.900972149491052,-0.731442082645433,-0.0485232023294043,-0.0943221747821985,-0.730678716688327,0.316016817738556,-0.591783762726121
492,492,6.03437765264012,0.813260770671425,0.9000782378027,-0.732727171371241,-0.0556592220199147,-0.0985735198034485,-0.834542415487147,0.010566470303286,-0.560254301512493
493,493,6.02722935957833,0.812243427070964,0.899120030513647,-0.737490868847373,-0.0595012454463566,-0.101726870162937,-0.952530641199224,0.000453530743257966,-0.428248245569704
494,494,6.02008279450523,0.811359463941265,0.898124875209795,-0.743271391615047,-0.0619004784499248,-0.105874569276615,-1.15551709160515,-0.0499092775904962,-0.519445583591213
495,495,6.0129056685041,0.810700339361096,0.89710929023544,-0.748810899813707,-0.0612486265796092,-0.10740290837092,-1.4076366270993,-0.0802193451657707,-0.346213519010392
496,496,6.0056681360421,0.810304480906517,0.896081794729403,-0.754727800426948,-0.0592814814908954,-0.107048550497373,-1.71614234417176,-0.283486929351275,-0.1823477291508
497,497,5.9983056528651,0.810154451193447,0.895113469875854,-0.76438355855722,-0.0556430816378986,-0.106490650034089,-2.0928584714145,-0.41512529509085,-0.199239668233451
498,498,5.99067618877953,0.810239800539526,0.894221887308033,-0.780840262724281,-0.0486894260710788,-0.108127507299768,-2.16359216712905,-0.408887116576137,-0.425704679457325
499,499,5.98278254588768,0.810652916201928,0.893344562535255,-0.79879350187489,-0.0325814911531204,-0.112318392954636,-2.00983498479384,-0.417743810383745,-0.691693485128812
500,500,5.97461469712288,0.81126450903681,0.892478920657422,-0.815541570192354,-0.0142331142724674,-0.117409187622282,-1.75109483402026,-0.285429278989476,-0.844653968889119
501,501,5.96621749927525,0.812060458159932,0.89162859271385,-0.835444668945053,0.00721675320776615,-0.118550395639566,-2.10069664687606,-0.207870393931515,-0.510490745481725
502,502,5.95747825499641,0.812978528768963,0.890812936499234,-0.860206469044055,0.0305298772211155,-0.116508178351114,-1.9482112354911,0.25007575457026,-0.202918335524188
503,503,5.94826918078951,0.813983677005496,0.890063616709,-0.892942552154183,0.0561416670120301,-0.111433868092956,-1.15733844928317,0.649150730099601,0.0866645654762555
504,504,5.93847827548818,0.815078916951497,0.889418607966586,-0.932681983501939,0.0758910126231546,-0.0966524169134551,-0.562775437177275,0.601879585812259,1.03866155175886
505,505,5.92808964896645,0.816251870509255,0.888933859649066,-0.968156774845106,0.0904093166046656,-0.0730226721129951,-0.486119972897106,0.806306723782888,2.0784691163899
506,506,5.91724428863219,0.817416920319117,0.888661067336239,-0.993062482111228,0.0994931282907789,-0.043239392574256,-0.539396486431193,0.678818888165277,2.85404791980079
507,507,5.90596732592557,0.818543408087899,0.888627694775481,-1.00908372624607,0.104892095006494,-0.00302661628735263,0.0118715856491223,0.387967629255407,3.85527943661051
508,508,5.89468099793749,0.819558882653522,0.88901826351018,-1.02276037134631,0.102912008706055,0.0416825705531813,0.128044720594462,-0.201636886777102,4.22026642336171
509,509,5.88366601715542,0.820466176237047,0.889964395403904,-1.02526261309797,0.100706472413903,0.0853660347053927,-0.0189611531832557,-0.00171763721067084,4.00373301131575
510,510,5.87293839406973,0.821442419925325,0.891315741374059,-1.02192618424872,0.0960150119968452,0.112411497951424,0.874405231425036,-0.613237775403555,2.37902261586892
511,511,5.86289175934689,0.822806585758631,0.892913924894206,-1.00333547769088,0.0991493402322302,0.13137203638518,1.77115547612885,-0.805693460230692,1.35431047226498
512,512,5.85095885146676,0.825769803540193,0.894338461190824,-1.01786833824581,0.119405581508315,0.152364645379551,1.20996653204066,-0.284034218405734,1.90492479927003
513,513,5.84141224254187,0.828340503991637,0.895691945226139,-1.00714772241224,0.138292814150922,0.173302964905439,1.21308762352889,0.279449088080477,2.25832168811725
514,514,5.83183691876356,0.831213579052335,0.896948301692077,-0.990551949297294,0.158296276973088,0.187581952379773,1.61675749211289,0.187271259743701,1.9403491749482
515,515,5.82269563230642,0.83435769215966,0.897894939057799,-0.967126284436417,0.171772512860183,0.190640325611581,2.20785211165125,-0.412693236464083,1.48746219311921
516,516,5.81376181991428,0.836841124217707,0.899223485234661,-0.936066263521331,0.171363962951722,0.189658957735236,1.91279995227173,-0.580059939875619,0.752266006762807
517,517,5.80538056265182,0.839201715036163,0.900442399556104,-0.894750822693412,0.17731317387763,0.180285318610519,2.17326845618538,-0.169194906690905,0.225692963504435
518,518,5.7973188018559,0.840873927121211,0.901773653656929,-0.857385531555853,0.178027416897903,0.163646537350332,2.32433853493999,0.202550998820365,-0.650514798418711
519,519,5.78961619697249,0.843114794846383,0.903167665611254,-0.828516080475752,0.192187258494493,0.141818084940031,2.12310009204488,0.842985453964155,-1.63241908003224
520,520,5.78218586096699,0.845507323225595,0.904525411393646,-0.807302807472768,0.208601743546505,0.116623164345307,1.99521341252465,0.98490522748569,-2.22721662492833
521,521,5.77506877174515,0.847618622615517,0.905861207807896,-0.786225764429398,0.220150088551465,0.0950050141742563,1.76652987403682,0.971703073755499,-2.08765221840223
522,522,5.76831019274901,0.848790071960483,0.907193338819654,-0.76232800623387,0.217012928986179,0.0803745789624752,1.36114528113053,0.979814786896316,-1.68341152758639
523,523,5.76195810413635,0.84893010336982,0.908507569594015,-0.739541478977314,0.19960490838736,0.0735231950897574,0.699231872492256,0.853480607767192,-1.21226316140063
524,524,5.75585755980527,0.848181048213323,0.909822652292713,-0.716262570953596,0.166048156737911,0.0753800008118335,0.508490736864797,0.573747798166568,-0.484348572021831
525,525,5.74981562178161,0.847036819951537,0.911202932810897,-0.690711467321505,0.129561015561752,0.0845055698895339,0.555677354898093,0.267977248252888,0.199022343888486
526,526,5.74364825064613,0.845904095361964,0.912683576301722,-0.669590297306368,0.093445974986114,0.0964682159989347,0.291991867631712,-0.0683153567349006,0.561162283992693
527,527,5.73735741829171,0.845004348472236,0.914240264575268,-0.657882640689025,0.0618409873289759,0.107588884598735,0.280561589429463,-0.226397692237854,0.593018548368361
528,528,5.73101010088932,0.844202994803535,0.915807370264489,-0.650497430538473,0.0271347794343902,0.110985102732346,0.0547032868947979,-1.13461415319808,-0.0334058812773338
529,529,5.72389132053829,0.843287979780355,0.917316651391974,-0.652375895421476,-0.0104542385856109,0.109425650561867,0.351278514655279,-1.75632637032197,-0.244838205727863
530,530,5.71509865332323,0.842717023963025,0.91882310992174,-0.67275363159332,-0.0385364717302936,0.115834809940238,0.91787441618802,-1.71854226730116,0.341881033580322
531,531,5.70515068885909,0.84311312115585,0.92024069274036,-0.713352035603754,-0.046613650116454,0.118350091345546,1.26960624001126,-2.03385512162331,-0.0775277015273338
532,532,5.69557167760792,0.844507534167284,0.921506651137616,-0.749267846548384,-0.0289035000578318,0.117121405639693,0.654322522421382,-1.47482735683893,-0.36423130191224
533,533,5.68700002171285,0.846578922711132,0.922587676035408,-0.762800821905608,0.00341511986410072,0.111636229440036,0.431711716771967,-0.936308363997822,-0.512742760541938
534,534,5.67922914147776,0.849038094431713,0.923489485707312,-0.758105427126235,0.0394829631600443,0.103402790020943,0.427886944177929,-0.656340322126757,-0.46982621481103
535,535,5.67205483234515,0.851604704501951,0.924231082602329,-0.744734294136087,0.0720254185459195,0.0932340514694359,0.407252220614374,-0.397410994975799,-0.51382184832931
536,536,5.66540058579236,0.853925258902971,0.924842842171724,-0.726392478074444,0.0950624855440247,0.079505328528275,0.316667684171092,-0.231864571702669,-0.784711513154902
537,537,5.65892499976134,0.855828041162534,0.925341588863471,-0.707203894003693,0.106041806902547,0.063212114034045,0.456741023720167,-0.283115763043338,-1.01996582274118
538,538,5.65224744651838,0.857324592427451,0.925737831508761,-0.694392690563689,0.108110769304812,0.0469920796088629,0.56916547989021,-0.311698389457777,-1.1359600178309
539,539,5.64526988008974,0.85839216199002,0.926043859534582,-0.693777054298101,0.101743023920643,0.0307449162353256,0.42926218542942,-0.379592214702018,-1.27307400282359
540,540,5.63810022345808,0.859068513926577,0.926274454559765,-0.699009591459297,0.0916945647116297,0.0172210705033704,0.157401662020021,-0.383494270120327,-1.21532215947107
541,541,5.6308172601887,0.85948273280558,0.926461745862748,-0.705462228828538,0.0775099512128672,0.00721597141169307,0.276524557290286,-0.499948931437375,-0.941409935120012
542,542,5.62357727976637,0.859713397793673,0.926636137615137,-0.707907342947808,0.0629882050375735,0.000640861091700827,0.00576658668597252,-0.575514591166956,-0.798301240566303
543,543,5.61643226123799,0.859935740725716,0.926789156445603,-0.708854176264658,0.0499177377470618,-0.00437490154962044,0.150069890331492,-0.631194534088265,-0.617810065069921
544,544,5.60948855437912,0.860545226773441,0.926914192717465,-0.703901303531869,0.0422183320323243,-0.00574065517819982,-0.0752638168380694,-0.583229523359913,-0.354302898257104
545,545,5.60273827037711,0.861287658417195,0.926998474651581,-0.699413278970129,0.0410235368872163,-0.00677657583614083,-0.450876965863403,-0.50333796488892,-0.378187009150006
546,546,5.59632316180556,0.86218613433975,0.927040765040578,-0.68910208777731,0.0430506724970719,-0.00629003980960291,-0.609037318656105,-0.457966159496253,-0.309808424371384
547,547,5.59026712779176,0.86307701700608,0.92703108727431,-0.678079543772221,0.0445093896344688,-0.00449659377932745,-0.95552622072829,-0.40809856924189,-0.120736154747389
548,548,5.58450217857578,0.863926588426378,0.926971648602314,-0.665382628046457,0.0459812569432939,-0.00160321615809461,-0.857779120606173,-0.198365363841638,0.108196518961452
549,549,5.57892697148494,0.864783201589455,0.926857205541439,-0.649311750556741,0.0468746665663929,0.0013210233375028,-0.703639489463175,-0.0156015431140213,0.105904561831946
550,550,5.57347615456646,0.86563449489303,0.926656663288809,-0.637645420669725,0.0484826288879691,0.00177434058244268,-0.380525117501848,-0.214828150736088,0.0248214231876115
551,551,5.56820531692004,0.866405839326976,0.926357608911237,-0.628286391612933,0.0472597456071696,-0.00128945046145878,-0.561481370919161,-0.42741305522915,-0.144357241011964
552,552,5.56308896974342,0.867057957831515,0.925959974891077,-0.617587881229028,0.043242469555934,-0.00717290382364816,-0.604763071329469,-0.576296442096641,-0.355071165224219
553,553,5.55804174644326,0.867613587447909,0.925461587344381,-0.606429375838047,0.039536354317139,-0.0127568055691549,-0.867395133591431,-0.496553163229274,-0.331316800070741
554,554,5.5529371884344,0.868117182891429,0.924878760746866,-0.588466682890161,0.0373828176338939,-0.0192891388121264,-0.550667269618921,-0.45233469901001,-0.350768733350247
555,555,5.54768371305364,0.868601105119356,0.924209570625016,-0.569723178186198,0.036025008408782,-0.0285461085758409,-0.445169114749109,-0.395152107727832,-0.451723339271828
556,556,5.54202054346994,0.869179780817865,0.923371360564134,-0.560557173487458,0.0325012022745212,-0.0399036038080515,-0.388801713506239,-0.654228575497152,-0.597950073694117
557,557,5.53656717528764,0.869346663663835,0.922862006947142,-0.561085255716238,0.0241524995463513,-0.0507887959112203,0.314299086015556,-0.721789845737861,-0.822120435967415
558,558,5.53093708179322,0.869606390629285,0.922014171196203,-0.561555995639621,0.0189789779846349,-0.0577883857087398,0.0822461829619397,-0.837189386463376,-0.4124077774634
559,559,5.5252679890296,0.869902688077372,0.921360921385256,-0.561870704928622,0.0162728079767122,-0.0587235235607544,-0.795131315452658,-0.587841853495682,-0.111619403651171
560,560,5.51828976432404,0.871011425440014,0.920728621028738,-0.578275778495702,0.0247593676759033,-0.0632407639920222,-0.652875557640994,-0.0285527459844187,-0.536171867347668
561,561,5.51175832084396,0.871789374897529,0.920075924779994,-0.591719165907619,0.0296240259485255,-0.0689451808153465,-0.961943264857278,0.186909505975341,-0.710942805864571
562,562,5.50490310518563,0.872659071866943,0.919407487677599,-0.613470659796173,0.035226216966352,-0.0757923375654529,-1.28453604135159,0.470278645726344,-0.880668375908319
563,563,5.49812050024876,0.873486134937009,0.918708259088801,-0.633857206688411,0.041704855238955,-0.0826787967294249,-1.17146102908585,0.602914512652926,-0.911058491602841
564,564,5.4913513180412,0.87456945507635,0.917985091509926,-0.652725648387554,0.0503800431298034,-0.0882792356560979,-1.24858701083452,0.606590476582504,-0.870967802843564
565,565,5.48441323244489,0.875855614585988,0.917219721990999,-0.667850391986545,0.0607929629798373,-0.0932266268447019,-1.26032018665318,0.381348991415296,-0.92056637334115
566,566,5.47728743925567,0.877033834352516,0.916386019580183,-0.682293957337722,0.0650944580343169,-0.0983722862504237,-0.897364431878858,-0.209363107302097,-0.892014103612888
567,567,5.46981865694985,0.878183459897221,0.915474085823611,-0.70181912225208,0.0640827721348464,-0.104396968758163,-0.552971820951274,-1.0701654357336,-0.775645061699656
568,568,5.46203824214245,0.879082338547316,0.914556509605383,-0.725168099839114,0.0575496073104759,-0.103987130348426,-0.415035016915177,-1.64077673064243,-0.0129527223931953
569,569,5.45391375303907,0.879587491570208,0.913789242840423,-0.745116937331376,0.0475118362749098,-0.0946087246971823,-0.00272810570365573,-2.30303769941283,0.970902445440374
570,570,5.44580774280245,0.879840141286512,0.91334115973531,-0.756494929852586,0.0384230548552941,-0.065183538350244,-0.813570178697805,-2.292460421707,2.6404070692692
571,571,5.43773257876961,0.879671745408589,0.913367053116528,-0.757338938790325,0.026503222793118,-0.0207629565101797,-0.775031631476434,-1.34321033616314,4.16708326640739
572,572,5.42987149268873,0.878969270430561,0.913768575784626,-0.747929310810596,0.0200997341834065,0.0173992754398994,0.291679482049927,0.983414049898238,3.70701148194378
573,573,5.42226459031277,0.878080596555376,0.914487363722745,-0.731806419375717,0.00918635541042263,0.0480078150538961,1.08679677339039,0.298450012597963,2.71595229073123
574,574,5.41455166184084,0.877409304696457,0.915905193846394,-0.727117457444211,0.00133740091509868,0.0874482699897792,0.554543710529224,-0.203551088276692,2.80447993645916
575,575,5.40456720940203,0.877122163995435,0.917276662637796,-0.755273379142367,0.00626825486021962,0.11548114523452,0.0609923834805279,0.749014744226739,2.26862389687281
576,576,5.39602999763092,0.877145150444901,0.918744064803116,-0.776395151485287,0.0146548976172981,0.131910586863038,0.148821633002783,1.12520365904565,1.28940911044858
577,577,5.38680482417378,0.876914524338177,0.920182659174639,-0.810108099062786,0.0113215419062955,0.13877248384041,0.259553168178275,0.909645313535502,0.471551891329384
578,578,5.37792095857891,0.876543672169909,0.921442598494824,-0.844108305776234,0.00458694852203417,0.133846721249109,0.536452216016528,0.899935505765224,-0.373855612592028
579,579,5.3691574347802,0.875999688907727,0.922458904642594,-0.868506931911951,-0.00507173566369423,0.121513867917142,0.628692972203296,0.735343770600336,-0.854025227310901
580,580,5.36079833383317,0.875344581946951,0.92322349660926,-0.877406333536635,-0.0185548881321664,0.105005920321202,0.707105630819487,0.418582908696442,-1.12087823185481
581,581,5.3528877026903,0.874670178314179,0.923723507953044,-0.868816253872425,-0.0295506629040207,0.0886935414741937,0.639800576895993,0.147562565792347,-1.01778388218599
582,582,5.34542993073361,0.874005582925453,0.923958093273808,-0.845144333264317,-0.0389232204371241,0.0730806745153886,0.594368333688427,-0.00440357101294421,-0.863434498678428
583,583,5.33837018182677,0.873381640868621,0.923985074188319,-0.810832789091374,-0.0457874988151852,0.057901153053743,0.716539398804738,0.00757018230271768,-0.766226757340463
584,584,5.33159017489653,0.872767241317674,0.921422642125251,-0.773708038941143,-0.0507045595565499,0.0355686764912709,0.676503339136653,0.0113417855833212,-0.632066285661766
585,585,5.32500453136989,0.872028901360325,0.919496064025742,-0.738580405727943,-0.0558531284446698,0.0172870235243621,0.764931982524345,0.0541675580606333,-0.514516564028979
586,586,5.3187882679243,0.870994771275248,0.917970164778374,-0.702967755854201,-0.0640801582031044,0.00314014971310702,1.07539434251584,0.163991196457646,-0.430882700644394
587,587,5.31295358077441,0.869724333197816,0.916706971077425,-0.664961616129279,-0.0727734386623973,-0.00667994894869546,1.35072397498706,0.117742899198931,-0.205622040423281
588,588,5.30723954617386,0.868418969357239,0.915637018054727,-0.635219371826061,-0.0786922440274275,-0.0124703429375313,1.4084998865673,0.232924382867784,0.00539753101907963
589,589,5.301338486203,0.867048159199903,0.914743786476025,-0.615697804810648,-0.0835694865058841,-0.0137570609897964,1.2682437920143,0.318266623980473,0.200916942089589
590,590,5.29532187724307,0.865706488289934,0.914033708638206,-0.60304705988668,-0.0854610106257687,-0.0131790123063214,0.959873999456301,0.517404468847136,0.223454009535288
591,591,5.28920599787001,0.864546752058837,0.913483178581447,-0.599518244014689,-0.0814000268767904,-0.0138665467811438,0.698554143927294,0.613688888486189,0.0703114390276079
592,592,5.28327921343592,0.864087161892185,0.9130904610146,-0.605125501327709,-0.0707739279130401,-0.0152194788198711,0.59328889115687,0.530208465546316,-0.140610648192002
593,593,5.27742851188851,0.864700373775049,0.912857254486798,-0.607258746468725,-0.0457489124752466,-0.0145489197711585,0.341018338974788,0.558103595287592,-0.137144818099554
594,594,5.27114509181721,0.866191072694186,0.912749607930886,-0.612363104371214,-0.0102436441641619,-0.0112535810180545,0.15723853737088,0.482764338602272,0.0307333583315047
595,595,5.26402602892064,0.86792239886051,0.912678689655087,-0.631871780832661,0.0246352034685041,-0.00674248339344867,-0.13973263935271,0.336477509616189,0.344294733331264
596,596,5.25577950759055,0.8691485414463,0.91255404522243,-0.66686928746508,0.048510794311837,-0.00409916709242776,-0.0227605379500535,0.697373258116364,0.354286878442269
597,597,5.24672522314039,0.869407351102032,0.912337851582623,-0.711498080359306,0.0523818518375543,-0.0032724338528479,0.256100578847279,0.846950474706399,0.236225745461388
598,598,5.23777748315868,0.868794172012737,0.912096911981787,-0.745390970638194,0.0374591755551388,-0.000928812752094342,0.268358484079174,0.959540945687175,0.381494428023435
599,599,5.22967930774023,0.867773229326322,0.911922752435489,-0.754463673609365,0.0184716158221567,0.000624541980770317,0.175092217850527,0.856513628664567,0.316998289003473
600,600,5.22230208070673,0.866644855349248,0.911819555056228,-0.746067690461619,0.00251278561160832,0.000566575431421502,0.270614432271915,0.668300274283722,0.14225596462389
601,601,5.2150631491052,0.865280673891546,0.911714081181148,-0.736449571239988,-0.0120025260351746,-0.000798741989590476,0.474279477630157,0.854775591221145,0.044753175140972
602,602,5.2078557422266,0.863557686959915,0.911566894374767,-0.72618241388127,-0.0294715808081011,-0.00297284250280076,0.357776051184096,0.825512312965114,-0.0225886228855806
603,603,5.20080224233764,0.861482792903234,0.911366708095134,-0.718873914546667,-0.0500401984330015,-0.00954117157589471,0.14733327680501,0.853884967395032,-0.357936256417625
604,604,5.19416012711483,0.859203233350591,0.911145046805251,-0.712021857028166,-0.0718312162072491,-0.0184433890272011,0.0672438751466827,0.747795255216479,-0.624936531437676
605,605,5.18825581576707,0.857025363430915,0.910970001232536,-0.695116624348927,-0.0880151806812533,-0.0269311061762773,-0.03288407433956,0.671458205251829,-0.698155114677444
606,606,5.18294492737747,0.855236504579531,0.910844154739611,-0.670768587871246,-0.0946553539075266,-0.0349952347209462,-0.102351425658408,0.626932047845541,-0.841384218306919
607,607,5.17779120780996,0.853956965568885,0.910724109047874,-0.649256338811016,-0.0901919770350885,-0.0425897677748462,-0.187159991402721,0.633174916301954,-0.923410932548865
608,608,5.17246426782531,0.853363535601374,0.910595204076854,-0.637151427551711,-0.0760809761518638,-0.0488041420473153,-0.29083684112701,0.690610184890671,-0.915489946420241
609,609,5.1667998365779,0.853392661021787,0.910451503229684,-0.630578985578697,-0.0542477900923743,-0.0516192761303613,-0.405938728101538,0.711102492314929,-0.680924061188206
610,610,5.16065065658739,0.853739143900568,0.910259829497767,-0.633709682736635,-0.0301069292605038,-0.0532313813721958,-0.480766713898879,0.612782220554203,-0.501919461911202
611,611,5.1539491383299,0.854033046009969,0.909985475195985,-0.642253840508739,-0.0112734060206672,-0.0531503739382073,-0.467887533555662,0.610419398610175,-0.277810950880706
612,612,5.14667539885513,0.854071563741387,0.909598782837333,-0.660177819187174,0.00285381008244824,-0.054749327185389,-0.449227452856938,0.729060631699017,-0.296767546077809
613,613,5.13889164520615,0.853877582544438,0.909101427268664,-0.6840749331847,0.0106650489940116,-0.0567481434753474,-0.472266647322867,0.777229697582425,-0.275566501147391
614,614,5.13083244052646,0.853643741758596,0.908526027631907,-0.708400328227849,0.0179573230331621,-0.0592611564974473,-0.508448876648657,0.913580108751174,-0.305260282688857
615,615,5.12274428915762,0.853565799756158,0.907914401855899,-0.72998796276105,0.0266275810179007,-0.0616374303987954,-0.59841379511679,0.964568782372472,-0.303277994247197
616,616,5.11490988632382,0.853622346496923,0.907230217238889,-0.742069948191434,0.039492473859665,-0.0633648113598345,-0.707707584653642,1.04231508452482,-0.257267190429923
617,617,5.1075279187873,0.854030292434589,0.906626549851694,-0.740286557153178,0.0526880221276288,-0.0659987656606433,-0.629434476069968,1.06622897879303,-0.398195731099822
618,618,5.10060478268099,0.854555755040149,0.905997096419235,-0.735024654339993,0.0636385703618612,-0.0695824995758302,-0.930890008547508,1.14690691550886,-0.311319432653846
619,619,5.09391550845552,0.855047545361404,0.905396893484707,-0.727319484312178,0.0725947780163381,-0.073889105420147,-0.697165703271758,1.07058122320014,-0.460611194007754
620,620,5.08747876093717,0.855416256502174,0.904773801934411,-0.709695912810087,0.0811350014415918,-0.0763952402322167,-0.952604738034651,1.43900813370802,-0.453910708426402
621,621,5.08110761915025,0.855578735085934,0.904104170448425,-0.697941135975832,0.0797810705305185,-0.0793804597885909,-1.14527611908505,0.87150787508356,-0.501309890649386
622,622,5.07478541714829,0.855530562235063,0.903372943337719,-0.688559130559996,0.0771041690251572,-0.0833955300647491,-1.09093720089495,0.919706260376245,-0.495158387729006
623,623,5.06846173375942,0.855378546668903,0.902569944311394,-0.683785384322858,0.0718619975907322,-0.0890609667436125,-0.819361683032381,0.681250907368223,-0.58338422542784
624,624,5.06218354313925,0.855292393222988,0.901710916612373,-0.682795607388506,0.064704672035018,-0.0948609984006927,-0.851852913352038,0.30792894378061,-0.666371594440086
625,625,5.05580678226519,0.855416899192575,0.900810219334054,-0.683356129906967,0.0573233718331606,-0.0997501439183572,-1.08049429842539,-0.165570723179109,-0.703140377704224
626,626,5.04924542787102,0.85585027232003,0.899885389585986,-0.691798285893026,0.0531734196951205,-0.102968101648286,-1.27260997734434,-0.409815207489355,-0.632374627842016
627,627,5.04246116309487,0.856550893833605,0.898941205544899,-0.705761718935344,0.0544487831942143,-0.104476066959628,-1.65677946298953,-0.272881676434777,-0.47940318558704
628,628,5.03539884566474,0.857504518337072,0.898046128628974,-0.724456626770897,0.0657397712751861,-0.10508281149202,-1.88291944369416,0.249878694975011,-0.387765542209714
629,629,5.02793591622082,0.858674558084136,0.897215854737069,-0.744409233869273,0.0853199198329471,-0.103058908907622,-1.8632428155153,1.20995556180409,-0.160402508698618
630,630,5.0201171088867,0.860157345746861,0.896431755153051,-0.765384952134833,0.109300477376242,-0.0994855131028505,-1.36172096143578,1.33897251666961,0.019372691904299
631,631,5.01193785191455,0.861815678254684,0.895724793417817,-0.785832132834533,0.133435949741503,-0.0927332743509822,-0.89697364853633,1.2873428213994,0.35399520416509
632,632,5.0032932353197,0.863704567954071,0.895146338240246,-0.811529870882174,0.156027458359214,-0.0772602459636378,-0.407948619137366,1.00142533297829,1.23019418469935
633,633,4.99416150202566,0.86572975247153,0.894793854906686,-0.838383688112353,0.174110865554278,-0.0533942190354394,0.396811018206928,0.831822824438267,2.04742779982598
634,634,4.98497096159179,0.86788288021038,0.894757405827913,-0.847358304835689,0.185922492645234,-0.0178128282796697,0.489149626759435,0.397187287476507,3.39672697694649
635,635,4.9760395942562,0.870060095623817,0.895139650400402,-0.836058551382024,0.191184715178656,0.0268989280945629,0.280705977693506,0.36255713872524,4.3695786307865
636,636,4.96724751844208,0.87228944921945,0.89599823662552,-0.83622506396369,0.19494518743334,0.069584148019599,0.708808858122023,0.0739993329169929,3.90560365621344
637,637,4.95843089529133,0.874557900430255,0.897278595893659,-0.833101869447885,0.198713454925892,0.101917937538012,1.39819384075567,-0.134924524471911,2.74097584238595
638,638,4.94959164896802,0.876709711889509,0.898722234006706,-0.821760997412565,0.198615903711107,0.125847876618609,1.85109934084348,-0.173334402549275,1.92713408333837
639,639,4.9412744307536,0.878814323371966,0.900132450988185,-0.805031663101371,0.196192828074369,0.139192250048648,1.85340267917745,-0.187757740346335,1.22877447341918
640,640,4.93452787850467,0.883860944302516,0.901582667709747,-0.779331690585822,0.225193994177484,0.148828822339118,1.38033168643269,0.0341301544087032,0.971938996641201
641,641,4.92754112665159,0.886886741177166,0.9029646190833,-0.757380026728006,0.236025012577369,0.150247238659369,1.15437473399983,0.19332251774692,0.396484273416474
642,642,4.92074999184169,0.891237918656848,0.904269367632626,-0.736119758434458,0.258512803009879,0.142727297539148,1.4442641468809,-0.0462589867678032,-0.359893618303026
643,643,4.91385157960454,0.89537228336044,0.904980768481741,-0.722338970358417,0.277128979431981,0.126051141915284,1.76328919069925,-0.209659433579488,-0.953868811615947
644,644,4.9068756123961,0.900095787046983,0.905830723311838,-0.711324119492481,0.303701596042107,0.108319098196332,1.82850922588002,-0.247132790775195,-1.30037492297525
645,645,4.90024405665175,0.905690151650866,0.90693545483006,-0.694220664001525,0.34684800955168,0.0920892177896296,1.80623980467837,0.0761991413785132,-1.46328717895928
646,646,4.89412817143565,0.912411362092604,0.90803144942257,-0.668498004257717,0.407021040022135,0.0803259307842519,1.92898682802135,0.0670400212208809,-1.34326134731787
647,647,4.88843448425861,0.920217322642194,0.909025726712974,-0.640493592740495,0.475936799419084,0.0717172472156675,1.63004961508551,0.155875556555409,-1.21235870335506
648,648,4.88276742374488,0.927329555231836,0.910116193870551,-0.615878478049184,0.522453863185588,0.0686200022183762,1.30506885160433,-0.228002555939299,-0.89322658873541
649,649,4.87710882341455,0.93308723876942,0.911194610663526,-0.596031453792078,0.536361756332628,0.0725059476768107,1.06204845996449,-0.644514425689406,-0.250056952508464
650,650,4.87132395891749,0.936817243955247,0.912324690761751,-0.585131710116088,0.513525267412442,0.0812267451086312,0.688169129815171,-0.77759174920848,0.262925180890921
651,651,4.86545515596898,0.938577758882702,0.913490942334614,-0.580635908446191,0.461324824809889,0.0925288634282449,0.345274114275151,-0.84013360002424,0.591340582375881
652,652,4.85954922467111,0.938657776165877,0.91466646575106,-0.57762682260708,0.389855644557986,0.103363081903746,0.263719893399019,-0.950905920009184,0.627840282384979
653,653,4.8537302212111,0.937389389343801,0.915822904463213,-0.577180219023018,0.304198889028096,0.113731627109893,0.128686418188852,-1.06815442038197,0.840200010426245
654,654,4.848001712494,0.935104445849502,0.916899093113579,-0.578858246006875,0.214077257581958,0.114079770519306,0.172044752589138,-1.04952463617286,0.204821859618503
655,655,4.8423398834313,0.932144829464444,0.917857679212942,-0.580653288927532,0.124799191257279,0.109947489934708,0.122945139710199,-1.20791674811946,-0.0949889219241364
656,656,4.83628309762408,0.929003928748882,0.918695036388937,-0.583961544761868,0.04604194278412,0.10333465890405,0.339394336715233,-1.30934066346052,-0.215264642949622
657,657,4.8293468141844,0.926327677605905,0.919416090048009,-0.599158606683786,-0.0148558543524623,0.0961641638533952,0.624653843495213,-1.28502496964365,-0.194657302656645
658,658,4.82160824118436,0.924685948918113,0.920047739386055,-0.624120769188939,-0.0509381183070488,0.0884753835004524,0.622842890918917,-1.08035790368034,-0.296856388813175
659,659,4.81354052008176,0.924306187430955,0.920614401588383,-0.650696186717062,-0.0573573993677211,0.0807252615109257,0.315945364791608,-0.932056164034837,-0.378081516769561
660,660,4.80564250009288,0.925020619536661,0.921123832186319,-0.670116572278422,-0.0428276062016076,0.0707319626151434,0.405318135733027,-0.732527483185451,-0.550929613146037
661,661,4.79816045088188,0.926378451852373,0.9215663568725,-0.676713814441478,-0.0196666115463182,0.0599559869886348,0.44648258000442,-0.623243436611094,-0.686440557400442
662,662,4.79104458438091,0.928006451096572,0.921937919913441,-0.673977156823253,0.00534936284972094,0.048866571633022,0.499321702728613,-0.549947087957728,-0.77686102137635
663,663,4.78411739660512,0.92965957178941,0.922229409834266,-0.668780349338163,0.0253937652444275,0.0385985379950249,0.336519381534709,-0.68096182585361,-0.680500864728865
664,664,4.77714409360474,0.931393158731867,0.92245304323706,-0.667754771843679,0.0414252166003472,0.0265052024237833,0.163968667701658,-0.748748466877908,-0.846882773335295
665,665,4.77008272670851,0.933363595267682,0.922627104318198,-0.670607761220088,0.0588117931896127,0.0157980520163483,0.163827435160541,-0.643233083887852,-0.831232151860042
666,666,4.76308873958626,0.935784436091474,0.922779617302241,-0.674409933165035,0.0817732424509605,0.00703311506367433,0.173447650924956,-0.627573865673017,-0.796192559903036
667,667,4.75625184749257,0.938552992424927,0.922925098912174,-0.673636264268744,0.105645135675638,0.000292281884767304,-0.136626748783235,-0.58684961877333,-0.788313527125111
668,668,4.74943979212307,0.941399511624137,0.92303488113291,-0.673645676945741,0.126211920622859,-0.0077506956871697,-0.264879891088772,-0.540408772436882,-0.972778939241836
669,669,4.74258245705495,0.944170694463011,0.923080675934327,-0.676270813134811,0.142587747806859,-0.014430931580416,-0.302438078835871,-0.514440374073349,-0.890180205662865
670,670,4.73579146163423,0.946815172409424,0.923059201620052,-0.680389505317402,0.153957407876068,-0.0185773496048022,-0.520349235818213,-0.457486304999851,-0.665388315237771
671,671,4.72922250645012,0.949371538888114,0.92298684822824,-0.68042491496165,0.162967695738037,-0.0194138327513455,-0.665085522840283,-0.378776138819377,-0.386573418691895
672,672,4.72299640031983,0.951856066367959,0.922877641244325,-0.673973928698381,0.170823382468307,-0.0179578158163234,-0.860435803342574,-0.344781223448699,-0.211266139531753
673,673,4.71713265471809,0.954123719456502,0.922730224629982,-0.663346354861689,0.17327809563922,-0.0166308693458657,-0.919217497074804,-0.342749058500867,-0.150510189372658
674,674,4.71156380508803,0.956151744700985,0.922531130043512,-0.651770642232317,0.170088384816864,-0.0160918419481049,-0.96520074001061,-0.461810076226164,-0.145689312588129
675,675,4.70621633920919,0.957870100523712,0.922275886352978,-0.641271070931939,0.162491656409517,-0.0165800428045803,-0.967990331261137,-0.628605004368461,-0.141518019045321
676,676,4.70095611735678,0.959231476477868,0.92194617568556,-0.634498880686713,0.148046976794439,-0.0209314532942449,-0.701991499052313,-0.614966079114413,-0.345706479234891
677,677,4.69571014883124,0.960286286550133,0.921533223421785,-0.622406318024953,0.132893452550324,-0.0266898590833666,-0.638563936767441,-0.695527257322542,-0.509461749662988
678,678,4.69026235171765,0.961100952422803,0.92099980807799,-0.617412300927522,0.115911889911403,-0.0347480449183768,-0.545121049481519,-0.717546041706316,-0.626731826756528
679,679,4.68444523670493,0.961732956542252,0.920338725144947,-0.619283197942986,0.0985925051400812,-0.0436156416567758,-0.392567196162408,-0.665825233063354,-0.692657935677031
680,680,4.67840663749242,0.962494705970897,0.919840979191404,-0.622780171143423,0.0852987598620045,-0.049863029819257,-0.392312622008704,-0.688098157078336,-0.700634201080696
681,681,4.67170312065841,0.962748051014907,0.919257215071297,-0.634105725637277,0.06778501791418,-0.0568620427458283,-0.320409906233951,-0.675700314879912,-0.670870034721813
682,682,4.66519551902642,0.963404094375131,0.91856714961825,-0.637589014358553,0.0598713382812582,-0.0652491406099928,-0.155204832425581,-0.551152737917802,-0.71618672634503
683,683,4.65842365836762,0.963760890168152,0.917759181983739,-0.639723003512014,0.053237257964553,-0.073780852122411,-0.405969398644769,-0.477441729731676,-0.713491923198638
684,684,4.65182939841644,0.964215374273351,0.916896593640263,-0.638582916636048,0.0484097008514828,-0.0821129197644271,-0.336258603868453,-0.514835802373586,-0.750641854489895
685,685,4.64524461851082,0.964608600951727,0.915885902476179,-0.63699853154017,0.045897784346265,-0.0901371130840001,-0.473216212192087,-0.482486496460169,-0.807222591152822
686,686,4.63882178666204,0.965089207649823,0.91482387691322,-0.63448301650031,0.0448888844658771,-0.0965466990963459,-0.791624652939987,-0.313399152504908,-0.602912584356429
687,687,4.63247476725495,0.965620456245925,0.913697799994005,-0.633688702493244,0.0459494449022244,-0.103180384979977,-1.08244971750318,0.0519036181949396,-0.618900516421358
688,688,4.62621346043641,0.966281293445965,0.912520027649605,-0.635018740037554,0.0488188389399216,-0.110679351487996,-1.19255625504007,0.219134347076762,-0.759867328114073
689,689,4.62000170694767,0.967092901283268,0.911310123862524,-0.635670837408286,0.0542893157486673,-0.116470941298978,-1.3594820977082,0.188896168506822,-0.722117169791359
690,690,4.61376352366486,0.968029196368838,0.9100759738063,-0.642031953759358,0.058582711537014,-0.123955111728259,-1.51042745914044,0.414414984985577,-0.877146847547242
691,691,4.60739082991868,0.969013378324696,0.908806697388029,-0.651199832338632,0.0542578810689776,-0.129760254918994,-1.22709740583665,-0.104013140701393,-0.644815063511308
692,692,4.60075509040156,0.970026065288167,0.907548108539098,-0.671065179674147,0.0527760239856071,-0.133643100804876,-2.01499922548687,0.0344186281543019,-0.745432739200585
693,693,4.5936944587813,0.97102208440909,0.906243854800272,-0.692856970327991,0.0480326257578281,-0.135946161573658,-1.5006861270382,-0.745547273026125,-0.329235894333357
