,Frame,CoM pos x,CoM pos y,CoM pos z,CoM vel x,CoM vel y,CoM vel z,CoM acc x,CoM acc y,CoM acc z
0,90,-0.088010937813093,-0.108434886453566,0.935473028610146,-0.0141492353092144,0.0870789772216444,0.0117044219499928,-0.106407038940614,-0.157605211657282,0.330219296145298
1,91,-0.0879359332960934,-0.107254380944792,0.93560469181213,-0.0133222697531014,0.0931519135699421,0.0161635429492647,-0.0214178251812794,-0.0151560340774876,0.446248695352875
2,92,-0.0878254881019461,-0.1060072225786,0.935781897649493,-0.0108843269238416,0.0999994904844053,0.021898682337402,0.0173206023473943,-0.0285673785417704,0.621998506767685
3,93,-0.0876613932954367,-0.10471877049314,0.936019457911739,-0.00804077086787305,0.105273373232237,0.0289542099454524,0.0418973019772135,0.0145163222759367,0.71532774199002
4,94,-0.0874451911020761,-0.103377874618638,0.936306976765206,-0.00221153767351927,0.111692510651996,0.0334412284873507,-0.135873812960537,0.0263075247821821,0.675874428846387
5,95,-0.0871795098493803,-0.101972969314404,0.936629477546193,0.00415236742684721,0.120522903016019,0.0363565390975348,-0.189664908534174,0.035315653254557,0.595838315106418
6,96,-0.0868778472440228,-0.100555483114563,0.93700547779456,0.0101476706713752,0.128483139326696,0.0393107162952036,-0.208447960717982,0.12623872899633,0.493344654985137
7,97,-0.0865162193350525,-0.0990966928197717,0.937422305479009,0.0157629333114909,0.135985759173734,0.0410454658761671,-0.305773362247752,0.220987241249502,0.353374132860931
8,98,-0.0861731487512575,-0.0976585750603361,0.937898782717603,0.0196850894226599,0.141483363717613,0.0415874311908571,-0.312921439255427,0.276891178125447,0.125600737475751
9,99,-0.0858676088648092,-0.0962359428932417,0.938434512063028,0.0234386560666975,0.143945103554562,0.0412850421104722,-0.257933162536209,0.229687123925841,-0.0334358510787814
10,100,-0.0856458899814181,-0.0948717885718539,0.938996974845986,0.024489681121546,0.14304332223829,0.0399988729188043,-0.269618197047357,0.250417580545079,-0.233366940929354
11,101,-0.0855510043137475,-0.0935425238381787,0.939540007871391,0.023598640948333,0.139404913282149,0.036247324373501,-0.32848742308696,0.0903383755996703,-0.43012785653949
12,102,-0.0856522517840078,-0.0922868358340857,0.940052433244768,0.0171857892274905,0.129834099649329,0.0340383767824535,-0.147782944208091,0.0222324339996306,-0.516791675091351
13,103,-0.0859296398871023,-0.0911258548627462,0.940508227010201,0.0080740859542953,0.118068589020788,0.0316182955229071,0.0304044413137494,-0.0569722672959562,-0.577090947978278
14,104,-0.0863289479799807,-0.0901317215476279,0.940754305910478,-0.00107094629920751,0.104877877517557,0.0281524497220486,0.152947198309028,-0.0804378008862468,-0.662002867350501
15,105,-0.0867330480039737,-0.0894286610296655,0.940955354183129,-0.00968342159667589,0.088913306117334,0.0242452861939376,0.254715421913525,-0.059960597371658,-0.811620496711416
16,106,-0.0868758085043706,-0.0892227243211508,0.941076026244064,-0.0124323215708668,0.0669436960550048,0.0196693080495961,0.197686312396818,-0.100024694713,-0.806261490966988
17,107,-0.0867188127200789,-0.0895652028289121,0.941106537109509,-0.00828416486654134,0.0408228245305634,0.0153248348537544,0.372273583528873,-0.100186492306588,-0.735336271386379
18,108,-0.0863342084236567,-0.0902630568185903,0.941042717117157,0.00110531637068624,0.0143504309406321,0.0106863019100189,0.435896546131204,-0.0616744306542836,-0.58718164075919
19,109,-0.0858027555691385,-0.0911379467179736,0.940882201469214,0.0114560207448472,-0.00880101555208864,0.00524480051492857,0.520378535074264,0.0514964441835164,-0.572902460891318
20,110,-0.0852049772743197,-0.0920722539157159,0.940652713795444,0.0207126313246095,-0.0275303336823489,0.00129698005638043,0.51603091109991,0.147703043836686,-0.42319144493914
21,111,-0.0846150435345949,-0.0929597771358583,0.940394893756598,0.027617074834481,-0.0422371178319244,-0.00278883882589727,0.47314256033045,0.133785352268059,-0.464667665527921
22,112,-0.0841080094642762,-0.0937439338512282,0.940122749025435,0.0313717179930327,-0.0508360805944352,-0.00650835402913126,0.482418112288431,0.201496869396496,-0.450791631706409
23,113,-0.0837043907216416,-0.0944197195451369,0.939844249563412,0.0345762974604889,-0.0571207880366105,-0.0106508909036644,0.470258702562093,0.146253798240082,-0.472552466181718
24,114,-0.0833849248518588,-0.0949914645801549,0.939559384500211,0.03717329444466,-0.0609188608515978,-0.0156459989414005,0.496718992105311,0.0377073123979779,-0.527886466939718
25,115,-0.0831354625819277,-0.0954694869266617,0.939253558278033,0.0398157661737019,-0.063479099246927,-0.022309138259233,0.486745197102246,-0.190095824103393,-0.614616220081214
26,116,-0.0829360772263062,-0.0958746905929944,0.938916003129316,0.0424425027037551,-0.0646802000291519,-0.0301601340175726,0.525508257541673,-0.356086744871078,-0.705972226168912
27,117,-0.0827807529499942,-0.0962274303606293,0.93854284291212,0.0439210002841191,-0.0644594743476607,-0.0382505013488518,0.477944604696634,-0.421029728324774,-0.738863946791066
28,118,-0.0826860395677214,-0.0965367412942815,0.93814903412675,0.0424480492498694,-0.0634696267857557,-0.0453748583065929,0.436573555132149,-0.420818749395657,-0.781248063102074
29,119,-0.0826538863860757,-0.096798391647342,0.937743282845549,0.038307175531397,-0.0611627248762687,-0.0517230422208672,0.38688823623425,-0.320552016074597,-0.854394365303477
30,120,-0.082704809541466,-0.0969945168394693,0.937333750174713,0.0326945391226905,-0.0580647314084802,-0.057248599430103,0.378171610051085,-0.276212793776428,-0.881842289006245
31,121,-0.0828421547314822,-0.0970956442008665,0.936918689600777,0.026654772837653,-0.052054922178222,-0.0628171513170782,0.308317591204795,-0.170691262687719,-0.881355993577833
32,122,-0.0830792221309021,-0.097095920707436,0.936503280883528,0.0191133965029815,-0.0457569931045047,-0.0670251823130173,0.283419764096352,-0.124590683418357,-0.82312607883674
33,123,-0.083404210222395,-0.0970081770729271,0.936100025072872,0.010307872370032,-0.0415422905890208,-0.0689352704140113,0.340771444867212,-0.160722418344756,-0.7267093354268
34,124,-0.0837848559203384,-0.0968479657729507,0.935708832465736,0.000998004535521838,-0.0372353282126399,-0.0702268652454169,0.191454746945231,-0.21321992264622,-0.6532482646248
35,125,-0.0841923061143493,-0.0966436791161761,0.935350064696389,-0.00749925253815733,-0.0330003369887656,-0.0686725643963137,0.143198826285597,-0.246932291956205,-0.398252780159733
36,126,-0.0846195406480587,-0.0964256669609123,0.935024896425003,-0.0138416372213948,-0.033143422863076,-0.0680272712330056,0.29677604655003,-0.628812847288357,-0.533572918358653
37,127,-0.0850512915464347,-0.0962159847370042,0.934721547415806,-0.0187674537249416,-0.0322285422607563,-0.0651394548355772,0.233948967090992,-0.558583325391215,-0.268496951424339
38,128,-0.0854980243933818,-0.0960314608960308,0.934457866937491,-0.0217425799827328,-0.0331781274906523,-0.0593209605270394,0.300564391880259,-0.720745120049259,0.0717778343990541
39,129,-0.0859646274142153,-0.0958778308179883,0.934243091631863,-0.0247985775300774,-0.0364765006141276,-0.0524775652795829,0.32222672821223,-1.02412302454684,0.190946173334804
40,130,-0.0864424506979443,-0.0957577280912568,0.934081931100575,-0.0283582148105527,-0.0378675647728793,-0.0408285845609277,0.246220695866023,-1.1166231607081,0.783828672224131
41,131,-0.0868983143311081,-0.0956589674318381,0.933993039731387,-0.0323054209094961,-0.0360327393747317,-0.029345979376295,-0.0593830888276,-0.978862481644036,0.937478772083174
42,132,-0.0873171230547779,-0.0955536330847105,0.933948273306755,-0.0357418049107591,-0.0300137963397747,-0.02010751906763,-0.436081125049784,-0.664952161444984,0.861610827397628
43,133,-0.0877590439918869,-0.09534634226932,0.93392380460762,-0.0424358688053916,-0.0205012762179317,-0.0132484754420314,-0.616920061926961,-0.760837699420135,0.675168408178431
44,134,-0.0882458612665892,-0.0950325374656946,0.933896434508714,-0.0512101573401541,-0.0129731186173275,-0.0094632936634045,-0.67887855777167,-0.967285043914727,0.466755568729342
45,135,-0.0887744055593103,-0.0946010443780717,0.933840102145755,-0.0578609696031432,-0.00316131750477188,-0.00643858158673823,-0.655783909018898,-0.843965695284166,0.484094077979605
46,136,-0.0892896957132994,-0.0940400198346446,0.933752661727216,-0.0601859963724051,0.0062348854817237,-0.00239413281909494,-0.63114417229953,-0.949554745811654,0.761297627644602
47,137,-0.089729356445927,-0.0933580693924298,0.933745734560463,-0.0585529964380316,0.0149350801002235,0.00803559343189163,-0.543768760967339,-1.2244424116682,1.75668965398772
48,138,-0.0899909249103073,-0.0925752951869915,0.933665858959296,-0.0492134853462672,0.0221499536123148,0.0247567793512176,-0.0271902540212002,-1.20432005498366,2.96872982334476
49,139,-0.0908895688868919,-0.0922300437536268,0.934138414252041,-0.0540792573738109,0.0331883961913886,0.048921903666603,0.0228096064554974,0.0566437574422369,2.50001515413475
50,140,-0.0918363415211045,-0.0918449624259361,0.934684070963182,-0.0697823231724044,0.0459888367756572,0.0633214460937169,-0.490541399945335,0.791927367212869,1.49399368533277
51,141,-0.0929738189744132,-0.0919979631130366,0.935222135773268,-0.0894924604802091,0.0462783711208023,0.066210266154769,-0.847827623032355,0.639182820637115,0.386681440312787
52,142,-0.0939221798370514,-0.0922859165596446,0.935712448772453,-0.105847305278421,0.0344028142665408,0.0669180802755827,-0.693140613019558,0.479466589251584,-0.0506140683463333
53,143,-0.0947181976185048,-0.0926750380091955,0.936192769714573,-0.115723593258998,0.0119082873711525,0.0677731583812711,-0.407711105227648,0.0698868396333326,-0.191466613084706
54,144,-0.0953993139214413,-0.0930534407363159,0.936676903576153,-0.115142088551878,-0.0160808444979579,0.0681351964047273,-0.353906871555196,-0.620109585251767,-0.0542179376740466
55,145,-0.0961320543935547,-0.093390257584084,0.937178031956466,-0.106836408652707,-0.0408849754034432,0.0676048037333762,-0.359590816455359,-1.02969235380579,0.198652483306207
56,146,-0.09697676715033,-0.0935563183029935,0.937702045916991,-0.0959469626848901,-0.0583095538016765,0.0691548422465612,-0.263744996179739,-0.994586543981412,0.596781785315565
57,147,-0.0978407563520514,-0.0934709178043975,0.938243250851644,-0.0837039582675418,-0.0661310405413827,0.0716460414031467,-0.168927854543611,-0.91837486052732,0.860634706969641
58,148,-0.0985536873623114,-0.0931223660175474,0.938772692403407,-0.069553236391167,-0.0603426335249789,0.0700657129997191,-0.171381668896146,-0.903114261930895,0.709938326804269
59,149,-0.0988962851935628,-0.0926960577020745,0.939264573552398,-0.0521615458602792,-0.0486337977462783,0.0637750879638905,0.0941882076066825,-1.23822803387467,0.303368090179383
60,150,-0.0987643208570534,-0.0923959871764621,0.939718752732747,-0.0330340607197106,-0.0400326663899198,0.0571218864905376,0.263232163264003,-1.22748564068428,0.00989589051531357
61,151,-0.0981774813902066,-0.0923261399457622,0.940156464283384,-0.0140703298775554,-0.0333619670963916,0.0520357303591644,0.311201444788905,-0.742854382106988,-0.189981740893204
62,152,-0.0972455201242096,-0.092507435185205,0.940597535931956,0.0038694540746263,-0.0274789799429638,0.0489864376400371,0.309379539118229,-0.0432792888352573,-0.283854686147457
63,153,-0.0962390708483914,-0.0928942445569411,0.941065274526303,0.0174278659102315,-0.0207624851062786,0.0483308947025359,0.345085414842877,0.488506708768256,-0.257073701686364
64,154,-0.094986271436563,-0.0934653438548225,0.941464381399998,0.0226207872823469,-0.011180917793427,0.0472645883782218,0.356618016002679,0.561733039776688,-0.328455225955104
65,155,-0.0944968302711018,-0.0940008104781086,0.941894694756496,0.0300579164062243,-0.0144313427088065,0.0421611378397841,0.243503005191944,0.288318689270211,-0.424764268182396
66,156,-0.0943342451093803,-0.0944845773112707,0.942009720562995,0.0305940106843111,-0.00981343334112544,0.0327690810297324,0.0800827529719188,0.140761930855793,-0.549677969045807
67,157,-0.0945484050480191,-0.0951408904551626,0.942074749924668,0.0244802250323882,-0.0147276880309399,0.0223849993347073,-0.130230787133034,0.0901082763518227,-0.601651572759107
68,158,-0.0953474102353052,-0.0964720634492299,0.94208526182387,0.00595063453022374,-0.035468504375818,0.0138871474966701,-0.116648562272966,0.155786887124255,-0.513737376935325
69,159,-0.0967080727008628,-0.098804195289394,0.942083742017068,-0.0214330126680819,-0.0737180170737578,0.00984659207953918,-0.0945321105403221,0.218546726271288,-0.248932665644645
70,160,-0.0982932081160663,-0.101797600080828,0.942099340523159,-0.0474915702845785,-0.115686531959345,0.00794267320830434,-0.117956403042288,0.455043618247117,-0.168111122445951
71,161,-0.0997544440411742,-0.104915100091909,0.942098553882514,-0.0668726775181407,-0.151446060355325,0.00708152794760068,-0.249241201127342,0.57846196883029,-0.125974643574047
72,162,-0.10095288758253,-0.107719504694393,0.94208166203041,-0.0798310861581558,-0.173280999293416,0.00674353071753781,-0.311681947295118,0.814631318687893,-0.147717812112833
73,163,-0.101890343638309,-0.109959556179302,0.942073962823577,-0.0870669955574858,-0.181415715674494,0.00713126420600438,-0.199135102375395,0.818783151095241,-0.138748702986169
74,164,-0.102606993883465,-0.111589246635811,0.942086021231967,-0.0888708800290464,-0.177456226940755,0.00663917830918206,-0.162400295488787,0.687975043783497,-0.184356665207368
75,165,-0.103170019853949,-0.112672241256365,0.942124095314552,-0.0872353744848949,-0.165061383671219,0.00627968552339232,-0.00959340858776251,0.513517587887166,-0.21217087601075
76,166,-0.103581596380889,-0.11333616907501,0.942180930415596,-0.0823457202691152,-0.146857673382158,0.00570159879885764,0.083036280429906,0.296290559052661,-0.182582928702719
77,167,-0.103838177547964,-0.113743434626697,0.942256869009727,-0.0753812770616123,-0.126019707470186,0.0061406361743301,0.208550491128329,0.165906891831922,-0.0981468766223557
78,168,-0.103899168079518,-0.114047827490212,0.942340840357811,-0.0655962560176827,-0.10542974225787,0.00614081793598331,0.198169592497178,-0.0198433841152133,-0.0661355013374158
79,169,-0.103748475421505,-0.114372166223069,0.942422932427529,-0.0537069103429378,-0.0889468663809235,0.00565281230160626,0.181054977522678,-0.0595533678590918,-0.103478268206989
80,170,-0.103345632135547,-0.114765380109913,0.942057454653016,-0.0392681277903364,-0.0780659187116532,-0.00112747017867275,0.139545044665868,-0.0886972318572521,-0.140415170395822
81,171,-0.103752355875434,-0.116098880201421,0.941999588897551,-0.0334897951232023,-0.0796091840359359,-0.00508965148779767,0.0417528314422385,-0.0758625831248601,-0.234527442443102
82,172,-0.103294787584404,-0.116682124359389,0.941854465271282,-0.0182736321102016,-0.0747948657810263,-0.0117497486527714,-0.0128395265734592,-0.0994642316562005,-0.377674772310287
83,173,-0.103076898642075,-0.11752929733578,0.941620868268495,-0.00709997824776842,-0.0751156022722537,-0.0189346964609368,-0.0831558277790402,-0.0388417940542948,-0.443594339915774
84,174,-0.102731408965542,-0.118254899099571,0.941329526603681,0.00307284688428109,-0.0735047671106053,-0.0275930549879589,-0.130694488804727,-0.0671089591028436,-0.561457148745256
85,175,-0.102436655853261,-0.11897786976487,0.941017911525897,0.00935897395221007,-0.0723927881355129,-0.0344471388059796,-0.131872259138243,0.0160857496865267,-0.543957634537726
86,176,-0.102174904717854,-0.119647596439653,0.940720051907373,0.0124937381506052,-0.0715408884550928,-0.0401536688520181,-0.148654842783006,0.0555061827567916,-0.580387974339486
87,177,-0.101970154527141,-0.12028721421442,0.94045806039764,0.0139104296837465,-0.0706447626364935,-0.0443956225910836,-0.0957386205903823,0.186775159656596,-0.588455182349978
88,178,-0.101811592649079,-0.120897990177967,0.94024725258553,0.0135069408317844,-0.0691332171776824,-0.0469328644090221,-0.0703590966185285,0.272422095949446,-0.578082926856568
89,179,-0.101690543456569,-0.121477864077964,0.940066822663993,0.0121062518017031,-0.0664933698847129,-0.0484921434323639,0.0204323692179356,0.420536043647163,-0.565573024494318
90,180,-0.101551590052859,-0.121979280183029,0.939888201970506,0.0126848458094982,-0.0621084697259047,-0.0494767727070069,0.103679604596237,0.540560271419126,-0.527284943484157
91,181,-0.101287728062528,-0.122158815731908,0.939686270706766,0.015390456218999,-0.0512978728423564,-0.0492542762410056,0.147023116039207,0.554315936689869,-0.3919844467688
92,182,-0.100872062553763,-0.121835750153724,0.939457411507817,0.0204478719049234,-0.0313409019849982,-0.0493565588302845,0.131193025336618,0.552767681516354,-0.336909131179878
93,183,-0.100391360733479,-0.121098140283614,0.939205632338298,0.0261697831921867,-0.0068600422858204,-0.0499637104803051,0.0923739655175199,0.466604825574296,-0.309288142410335
94,184,-0.0999076808950445,-0.120152067097714,0.938937371548188,0.0316311986545315,0.0165425595135906,-0.0510028595247224,-0.00536623070272061,0.394337509173845,-0.270450896054749
95,185,-0.0994565823913444,-0.119170385187686,0.938666301569081,0.0351068518821522,0.0360202378189052,-0.0515769387959476,-0.0159833689920178,0.394460669358144,-0.241513937946208
96,186,-0.0990284143332507,-0.118267834729634,0.938402338712094,0.0379658321743733,0.0499887663036008,-0.0507554577424624,0.023289744303945,0.34424017040581,-0.129744051584629
97,187,-0.0986113094874417,-0.117517857032806,0.938159773557859,0.0388690420608247,0.0582239704886914,-0.0480146919357065,0.0385123825178464,0.330457135907288,-0.0259980306552733
98,188,-0.0981932012198635,-0.116955159203012,0.937940527343579,0.0411026745980873,0.0601432636425972,-0.0450808159260226,0.0894828927304016,0.384840172174915,-0.00991873761606709
99,189,-0.0977750549914884,-0.116539529711651,0.937740366332091,0.0427366204201879,0.0606901791233678,-0.0417016150976249,0.107929755066988,0.320827302730975,0.0554254943101444
100,190,-0.0973790987059843,-0.116250061661262,0.937558593381988,0.0441854457457929,0.0569415207341405,-0.0380860546358903,0.0876231968682713,0.31281716632329,0.0923105856167256
101,191,-0.0970346492460599,-0.116022732014174,0.937388498186423,0.0442558672442875,0.0537424025446167,-0.0349389659946018,0.0847683354313632,0.278954327794324,0.0951914156523926
102,192,-0.0967428572338546,-0.115806684226751,0.937217580179446,0.043848970684075,0.0505042383540402,-0.0327792816093723,0.0233602511682765,0.155013334753654,0.107577839363534
103,193,-0.0964794211504975,-0.115565183043891,0.937044838750446,0.0445730846534678,0.0454682619160193,-0.0276038183595318,0.116214799981145,-0.0803547340409767,0.432645268177774
104,194,-0.0962347034584103,-0.115317052260318,0.93690406272722,0.0403736984375545,0.0453075877804539,-0.0247533091905861,-0.329033974498045,0.29822369105521,0.181455312754989
105,195,-0.0960237384983282,-0.115017830056406,0.936770344592973,0.0337908653321388,0.044769191695073,-0.0210201470612534,-0.259192431703799,0.0722892063991758,0.266367755578441
106,196,-0.0958115284479506,-0.114663802199207,0.936622429552726,0.0297631404655614,0.0466584318320485,-0.0154431467628058,-0.230721695898589,0.242322439128343,0.587187296920246
107,197,-0.0955631491750455,-0.114535759071917,0.936162306894826,0.0270482645682539,0.0418043841879601,-0.0136554524028013,-0.264818112027322,0.222646552853027,0.655388159879586
108,198,-0.094881378944048,-0.113132652387942,0.935923018282972,0.031704267646075,0.0516572279339672,-0.00832474614099465,-0.169399494347515,0.160351661214262,0.700950177831262
109,199,-0.0944525476110239,-0.11332176851504,0.935690626225095,0.0355952155718225,0.0441465058240958,-0.00375707522515485,-0.0848633377287599,0.123490757943307,0.646801004840325
110,200,-0.0938852259227084,-0.113017237449739,0.93544794364858,0.0407868603422878,0.0399490539748584,-0.000652786621914796,0.0396740115306352,0.151842506517883,0.540752635142854
111,201,-0.09337248856356,-0.113031050112793,0.93531425685334,0.045079991509758,0.0329133450662898,0.00227640748830914,0.0174213752981009,0.130738874752235,0.522092336556537
112,202,-0.0930814273691429,-0.113269132632511,0.935044457002441,0.0460603136963282,0.0281827366067917,0.00452336631862602,-0.061952032010499,0.0787878649819692,0.507926016141713
113,203,-0.0928251759764861,-0.113407817406774,0.934972732854918,0.0429411958313309,0.019565866400626,0.00798905179673224,0.0784627825788333,0.0633527057974333,0.605420575551517
114,204,-0.0926437864347187,-0.113485761183452,0.934928354054423,0.0362330642096934,0.0133564121946419,0.0103713704705302,-0.0909685723838148,0.0608224980656782,0.710903547053223
115,205,-0.0924207418701644,-0.113540806383077,0.934910278608725,0.0311452034387568,0.00686787526048245,0.015634750075055,-0.100951103967659,0.0407464204635482,0.933732659698443
116,206,-0.0920896409675479,-0.113422846945624,0.934923389951807,0.0313888125875803,0.0056267604728389,0.0221090919006082,-0.0811207432850373,0.0604332426938676,1.02804862452901
117,207,-0.0916358420946513,-0.113084955138924,0.934943686158788,0.0366002525319904,0.0100392477039401,0.0267247367993522,-0.0120277123328655,0.0551732520931098,0.896841205125258
118,208,-0.0910526289253576,-0.112505761610265,0.934942979318877,0.0430600822051763,0.0186054453320171,0.0278243019229791,0.00557491219597217,-0.0105424651968532,0.592860350423463
119,209,-0.0903840628965416,-0.111756366511123,0.934894109218775,0.0497235833442063,0.0298533630132366,0.0244538998285164,0.0290683477088201,-0.10041655391799,0.229843441354137
120,210,-0.0896745575914932,-0.110911071234744,0.934788273802603,0.0538616346873061,0.0420301392289513,0.0176956846018676,0.021031933196553,-0.132988997388893,-0.124747461716608
121,211,-0.0889786242213468,-0.110022214643232,0.934625832002072,0.0554498533123896,0.0554020576348769,0.0089365742098196,-0.0265089953642582,-0.141703047372642,-0.354392606311584
122,212,-0.0883056262334169,-0.109133295491608,0.934499573082448,0.0555802777071483,0.067192036246825,0.000190721375245975,-0.0385265452499387,-0.083992775231878,-0.472633193594167
123,213,-0.0876408522755229,-0.108231294250508,0.934316946828427,0.054577685387056,0.0779561716661847,-0.00867447349562201,-0.0429469953172152,-0.0899438334793322,-0.555541710905259
124,214,-0.0870029851247835,-0.107386746715421,0.934059265136473,0.052489451593262,0.0841758977137047,-0.0165426483951261,-0.0750164630256973,0.106346490076143,-0.591061702956808
125,215,-0.0863727734236888,-0.106572881429099,0.93380366249351,0.0507374826612457,0.0876739526710805,-0.0227689338716329,-0.0185206731248791,0.190405600762997,-0.568111394020631
126,216,-0.0857130604897871,-0.105730139480267,0.933649132706937,0.0498989812671598,0.0890034017728419,-0.0260544691200508,-0.0438113458386989,0.277447878595564,-0.463497504531841
127,217,-0.0850169569679502,-0.104885029304463,0.933558751286306,0.0506772394628972,0.087681972922306,-0.0266493905749059,-0.0878071751025381,0.314726919693157,-0.306603096209242
128,218,-0.084253983513334,-0.103922157061457,0.933439330528632,0.053031736718477,0.085269568524295,-0.0245139181283072,-0.173856331403618,0.303065577225338,-0.0830763173804036
129,219,-0.0834965009278041,-0.102884911624053,0.933385797395584,0.056406977095931,0.084559141494731,-0.0205024912160824,-0.258527360149322,0.272841601509055,0.152823688296935
130,220,-0.0827634623968141,-0.101712659975457,0.93342516292357,0.0587139912862054,0.0845628298930914,-0.0128607091475023,-0.335776068520858,0.159619825733592,0.507271156372506
131,221,-0.0821442414370853,-0.100488314044413,0.933601252204847,0.0582239152250696,0.0853420176384079,-0.000251219186938933,-0.297488440773966,0.202366712622102,0.925091293061313
132,222,-0.0816291196400715,-0.0991872105389796,0.93394114559932,0.0581425763636105,0.0888644060221125,0.0145790402192511,-0.256060147009424,0.175621579845085,1.26732037320707
133,223,-0.0811563900381375,-0.0978556883376306,0.934461717398684,0.0576966597662318,0.0963010730560264,0.0301683973382683,-0.20545990936863,0.119622819543708,1.4308914080113
134,224,-0.0806744463201162,-0.0965755891456817,0.935154672295702,0.0572517898107025,0.105480350994167,0.0444952751905867,-0.220997394204709,0.207781000754503,1.36282030353225
135,225,-0.0801580374219338,-0.0953598766619024,0.93599534035925,0.0542100160274558,0.113521336575555,0.0567545463817567,-0.361480813472767,0.342870502238323,1.08823947433225
136,226,-0.0796599657789653,-0.0943382775774235,0.937008118125497,0.0477150322754129,0.118079073842848,0.0675200569151942,-0.412550261815049,0.40720053135021,0.723085649101245
137,227,-0.0791542827766258,-0.0934069050504138,0.938194243009828,0.0412698668987872,0.118495984445745,0.0752729838290195,-0.377987778271794,0.414527549974302,0.29709626337839
138,228,-0.0787350894734208,-0.0926900881020969,0.939425618661643,0.0360012760368772,0.113108395460626,0.0792769193497899,-0.228977407685612,0.290457506732933,-0.0819822573351197
139,229,-0.0783696143517353,-0.0920997338318441,0.94062558866911,0.0324364818145137,0.103095253240012,0.0782159847233349,-0.240232958947324,0.0704533417166962,-0.427680469088899
140,230,-0.0780628459265368,-0.0916352423804507,0.941739930274729,0.0291912432981978,0.0893652973546206,0.0752809935740418,-0.107327638313151,-0.0713563015223738,-0.556472833447632
141,231,-0.0777977355823871,-0.0913111311831308,0.942275233624116,0.0271692303512147,0.0729543522587421,0.0681451576874265,-0.110031784467663,-0.155691369359002,-0.73225379388198
142,232,-0.0775589142449181,-0.0912461993322648,0.942702517527237,0.0266900616266765,0.0538591636178813,0.057978645704876,-0.0429931587115,-0.276849888358344,-0.913364638105497
143,233,-0.0773193852267312,-0.091938854988738,0.942968335042183,0.0272106948047395,0.0231735870294113,0.0462740901246535,0.0820675235635131,-0.363263305605625,-1.04956762619203
144,234,-0.0770775671964904,-0.0936942934259213,0.943024929233218,0.0270346429873633,-0.0203067710157121,0.0346857667627012,0.234591051968683,-0.418151033906401,-1.06207862363893
145,235,-0.0768164497889194,-0.0961259688605833,0.942848851217571,0.027487052656385,-0.0669976051825296,0.0225354944351387,0.40131921464842,-0.534851203592162,-1.04586413920305
146,236,-0.0765178493799241,-0.0987227449798715,0.942469733704077,0.0283926024334636,-0.109655956834619,0.0103560189925949,0.550186248592107,-0.517569745564201,-1.05467977879932
147,237,-0.0761968389789296,-0.101131835460292,0.94196685318705,0.0298748913669874,-0.138741706011982,0.000518335062875617,0.737284302190588,-0.308734410524799,-0.86361694865847
148,238,-0.0758847623834065,-0.103140560506138,0.941435703178267,0.0293767512624518,-0.154419829814392,-0.00680536478936926,0.67030394569525,-0.0176807719925519,-0.753638212651414
149,239,-0.0756304647831186,-0.104635233026979,0.940916480693701,0.0267306770903588,-0.158864034897141,-0.0130669372703159,0.60178567656957,0.0701749077419582,-0.737642840603783
150,240,-0.075459560677442,-0.105589053326579,0.940432163083767,0.0220780751987816,-0.153186010054615,-0.0176341105320271,0.451383030207227,0.243618435249432,-0.658847091601592
151,241,-0.0753552369893179,-0.10602910142417,0.939972269431752,0.0183453068460461,-0.138357350184013,-0.0240702769727871,0.296023833059087,0.29811273440371,-0.723922724924016
152,242,-0.0753323872136896,-0.106064152460992,0.939535969716171,0.013498226519862,-0.118843200126843,-0.0297090054555375,0.233157067678815,0.320967975018832,-0.718259999473848
153,243,-0.075388868884852,-0.105796396015318,0.939126367121722,0.00868306227146068,-0.0975203478115104,-0.034612787009789,0.28319538005798,0.26876669147493,-0.710332289968027
154,244,-0.0755035058800015,-0.105339937425164,0.938733239633124,0.00554347122888467,-0.0773274225093113,-0.0408247354146414,0.278589747486345,0.0925102756667926,-0.806849818680286
155,245,-0.0756732832748152,-0.104819463708556,0.938349175278417,0.00231526840363579,-0.0597409731941188,-0.0477170156889775,0.328416267122026,-0.131550283697043,-0.91913398636818
156,246,-0.0759093148294066,-0.104336295304795,0.937975140696458,-0.00103253719254956,-0.0458198963509648,-0.0536396737359198,0.392379876833811,-0.120005826896817,-0.931674513517658
157,247,-0.0762298384603889,-0.103939910750965,0.937618374565341,-0.00558161870172435,-0.0355282534853327,-0.0584618871116268,0.361155602230215,-0.116233391147978,-0.923698077774632
158,248,-0.0766615661698127,-0.103644365015001,0.937274095269121,-0.0103473879537839,-0.0262683719352979,-0.0634896474874841,0.302251867700383,0.0167791572101557,-0.951526087559142
159,249,-0.0772141657421859,-0.103420901533579,0.936934373427177,-0.0151208375186023,-0.0179871244156943,-0.0681615442607166,0.259328652350681,0.124320661951491,-0.909447019158385
160,250,-0.0778973595605658,-0.103249890133176,0.936605897177845,-0.0220819219820187,-0.0126764797964425,-0.0706473552480252,0.307037818977109,0.165177427363215,-0.79507537000397
161,251,-0.0786771631810772,-0.10310761637899,0.936279902664198,-0.0288027603010172,-0.00933305469689101,-0.0732372267399476,0.253509830928255,0.140914324248457,-0.739781483430458
162,252,-0.0795353753321899,-0.102968637667315,0.935957436066081,-0.0380421906846596,-0.00661867130904977,-0.0744859228262967,0.180855624768708,0.159148746563262,-0.675351664463394
163,253,-0.0804305022814383,-0.102852578863896,0.935636617556708,-0.0481527058910055,-0.00669216539174964,-0.0745585675537031,-0.0413500028266438,0.0845888473273554,-0.554710227642882
164,254,-0.0813301400619543,-0.102759438794559,0.935356496551128,-0.0569777290193119,-0.00931478520752574,-0.0705925803508672,0.141819388247126,-0.0735122038733966,-0.253365006928003
165,255,-0.0822029091725879,-0.102706804478317,0.93510398770512,-0.0634493546424735,-0.0146992548942415,-0.0689222309870556,0.110834808798795,-0.435955342044645,-0.447600707239536
166,256,-0.0830265978018342,-0.102699579620349,0.934846030814152,-0.0660352604171263,-0.0194442934640404,-0.0664507897217668,-0.035798394995533,-0.48350840379333,-0.223248469408241
167,257,-0.0838147807177289,-0.102743319667291,0.934696529851502,-0.066034549345339,-0.0261838526552462,-0.0589676105282267,0.036055531190606,-0.723139580706037,0.236320672785084
168,258,-0.0845363929024955,-0.102873574058022,0.934646932953714,-0.0662874050928691,-0.0376674965306609,-0.0495063488873827,-0.151655259548904,-1.17139974843524,0.477136874586095
169,259,-0.0851892249092924,-0.103098708236977,0.93463609156618,-0.0681545423426412,-0.0450901767194369,-0.0376888850646265,-0.438739090501802,-0.930650986869081,0.906716883907693
170,260,-0.0857661027361168,-0.103370238399348,0.934677506223163,-0.0660392370200104,-0.0510062384142659,-0.0248334112996199,-0.194581619113403,-0.902696192093927,1.24004997207509
171,261,-0.0862603399875799,-0.103620521989721,0.934756135141861,-0.0597015936544928,-0.0483476249042931,-0.0110173055573059,-0.0731511449747454,-0.875725142172826,1.47001957918895
172,262,-0.0868746660869005,-0.103895245643493,0.935297711819253,-0.0640855720545257,-0.0403354707222509,0.00041738070885983,-0.761196940031184,-0.406942217086762,1.30913652685765
173,263,-0.0877515177274523,-0.103407875651389,0.935966850658095,-0.0738452069588898,-0.0211971038513285,0.0104877566061413,-0.962956729696127,-0.220671056765104,1.07444356902609
174,264,-0.0889467937845575,-0.103716388147612,0.936334635922817,-0.0891288689956759,-0.0135373185003035,0.0197023929670806,-0.888174857172835,-0.264597612934289,1.12450982924201
175,265,-0.0900560720102499,-0.103867169840593,0.936497475680138,-0.102487415085665,-0.012351579228661,0.0254976075779577,-0.788476873268816,-0.316397115935164,0.953823372567107
176,266,-0.0911459805310637,-0.104387624269767,0.936514156432204,-0.110427560901075,-0.0214505929459882,0.0288898166268591,-0.746674933983028,-0.405563155627109,0.970055228319336
177,267,-0.0922211371842266,-0.105126894373965,0.936233987300443,-0.111905043878187,-0.0355710375560046,0.0307308749346859,-0.745637136970462,-0.711515271582408,1.27055485248308
178,268,-0.0931078263433957,-0.10588050640163,0.936197374599831,-0.104771691362878,-0.0482379477223669,0.0409922112015625,-0.641569797532033,-0.835235292301472,2.39991725313352
179,269,-0.0938756574945769,-0.106460707964262,0.936426956202116,-0.0959737364535151,-0.0514882841972176,0.0605420322535469,-0.386407152025736,-0.46157416345564,3.08857950831189
180,270,-0.0945989871594999,-0.107120995269481,0.936902907041626,-0.100919820715079,-0.0474090223294376,0.0812824964369172,-0.903265957371783,0.420972887693116,2.47351028078455
181,271,-0.0952862566777845,-0.108043014552913,0.937510811790685,-0.10765668993222,-0.0477501694186888,0.091503531326183,-1.30042826280966,0.506191447733344,1.52041452300296
182,272,-0.0956211340458524,-0.109149522264076,0.938109490987857,-0.102996427174653,-0.0566390717422689,0.0940651806640662,-1.10723372490166,0.0681847377539756,0.817308778181277
183,273,-0.095590413930816,-0.110318904949982,0.938679141549752,-0.0940191053410318,-0.0767102264197068,0.0947816439673184,-0.674270515818467,-0.377994303766106,0.371263931792946
184,274,-0.0953379558640471,-0.111444996497491,0.939231058975918,-0.0801056014587095,-0.101978380232287,0.0949561714580244,-0.276163405221318,-1.071503007748,0.261337286941102
185,275,-0.0951313150423815,-0.112273700808695,0.939757185516635,-0.0615677564577101,-0.119984044682299,0.09356717286985,0.0677194286892488,-1.46827917866631,0.281701861372207
186,276,-0.0950091157387866,-0.112734440539402,0.94024325492025,-0.042443338759301,-0.122218948062884,0.0899778682960833,0.147568290470579,-1.38345092185077,0.300996429621421
187,277,-0.0950610581905332,-0.112714389602581,0.940667192472883,-0.0254650165738105,-0.111769018691219,0.0818972933292638,-0.00650332452624641,-1.15230572833254,0.11627709854113
188,278,-0.0953042493038302,-0.112208040258798,0.941010090832554,-0.0144575883420509,-0.0920851487439531,0.0719168907880062,0.192248738071658,-1.1038690454851,-0.0797266778919381
189,279,-0.0956803834158771,-0.111376883873736,0.94126689307824,-0.0122473999385521,-0.0650508692160905,0.0593727523406991,0.330064848267783,-1.18444248610645,-0.447307936052134
190,280,-0.0959646722860246,-0.110519425494028,0.941452066584722,-0.0126131025178437,-0.0374173446122034,0.046001544976706,0.46591446282057,-1.02729438922241,-0.713325630431237
191,281,-0.095924628046391,-0.109874918910462,0.941588207761447,-0.00823563678250795,-0.0149807500494349,0.0334083150288037,0.461962638082642,-0.699443329223751,-0.78987453725371
192,282,-0.0955210127071689,-0.109539375882282,0.941704203548094,0.000118012918961692,-0.000162150249942267,0.0231513865736528,0.361553737514197,-0.109523153630548,-0.832844054826925
193,283,-0.0949355207165311,-0.109481056394658,0.941820857438742,0.00822926160039029,0.00921091605161325,0.0167285961873603,0.329718496913649,0.476807251789177,-0.743719564440225
194,284,-0.0944085494328756,-0.109586358998045,0.941929336214419,0.0136576685741884,0.0157375615088527,0.0115707780372591,0.291584518599117,0.815913480674104,-0.693606183134802
195,285,-0.0941579411568879,-0.109784419000536,0.94204162704133,0.0152192238550275,0.0175591376973892,0.00703334278164619,0.294108649392313,0.706964653724712,-0.646800647666848
196,286,-0.09436142539575,-0.110135769707029,0.942148445991024,0.00867891034847934,0.0152105146791613,0.00190815934163013,0.187767393294997,0.508275163075294,-0.624531449169116
197,287,-0.0952163337162656,-0.111119822350514,0.942258475117244,-0.00806410597153643,-0.000417617630102291,-0.00307577541714982,0.111776447086814,0.374012736058902,-0.584210340831585
198,288,-0.0967033042861257,-0.113012581668925,0.942398865459544,-0.0323569541995977,-0.0303988675894525,-0.00568329649249607,0.0338333416976845,0.392001483460514,-0.407872794015227
199,289,-0.0985684955005989,-0.115497452270109,0.942569786755752,-0.0602781426001432,-0.0668295551256386,-0.00613327629646598,-0.160789347291903,0.435527346727745,-0.277752554635906
200,290,-0.100500533171306,-0.118179214914005,0.942744706816664,-0.0849057165921367,-0.100666953123176,-0.00530651765035364,-0.220345123248532,0.472598328092109,-0.17626539306372
201,291,-0.102255978675909,-0.120858651313311,0.942936964125858,-0.104220805115347,-0.130326938857457,-0.00200696302646008,-0.0990203187918753,0.495643250006737,-0.0865979084523123
202,292,-0.103657843558644,-0.123388369100161,0.943159354131292,-0.115251032191082,-0.152693655793709,0.00157889798437034,-0.119571558605965,0.452948152940026,-0.0930504335034845
203,293,-0.104690907522186,-0.125593745411049,0.943412466143392,-0.118720562037588,-0.165810754331664,0.00528590295664819,-0.118123013239969,0.418685202630808,-0.10905404424659
204,294,-0.105454423117274,-0.127419041611857,0.943709014510446,-0.117803397336517,-0.171806538814178,0.00919785154250409,-0.0386383563933166,0.326897781614361,-0.116885557636243
205,295,-0.10606192109264,-0.128797111205641,0.944034569672109,-0.113684958797291,-0.167832202940277,0.0117376895350434,0.0419305435404221,0.211827104408694,-0.166619902214719
206,296,-0.106582383055643,-0.129762139338293,0.944377391664747,-0.106616565753196,-0.157292291349152,0.0138358354948298,0.172114172810001,0.0846411833683374,-0.142030512993885
207,297,-0.107001916695288,-0.130412290878199,0.944721564185696,-0.0968150729655809,-0.141783797080791,0.0148348768787954,0.15751986309092,-0.0756008409050351,-0.128531376317518
208,298,-0.107273584435031,-0.1308641821339,0.945049878009978,-0.0835424665004172,-0.123044639347798,0.0147899538143938,0.0996573271667569,-0.142624816986028,-0.0955233018422883
209,299,-0.107370187033346,-0.131226462636964,0.945346444559665,-0.068547929767418,-0.104937343679541,0.0124635034041637,-0.0634680116805972,-0.173220074757369,-0.205890514336486
210,300,-0.10730503300984,-0.131608123831312,0.945601136746089,-0.0539203355944473,-0.0914729255034993,0.00889904163009901,-0.194418228754841,-0.13132059766445,-0.324506493023504
211,301,-0.107138417011379,-0.132049322827287,0.945810589169266,-0.0417437284909394,-0.0826540650995891,0.00435469564888102,-0.233772966693488,-0.0547783021613302,-0.485423967649956
212,302,-0.106745589561355,-0.132503489412604,0.94566951828729,-0.0261179098940004,-0.0756804564570496,-0.00560146361407018,-0.148244025576578,-0.0260001940879647,-0.619978182335265
213,303,-0.106887283246436,-0.133249449279289,0.945685320764916,-0.0201123385378001,-0.0738822350396425,-0.0126642080400554,-0.120205689967394,-0.0412966542876624,-0.695673203497773
214,304,-0.106423218070915,-0.133725507001755,0.945610059467913,-0.00960067613880383,-0.0705688484896215,-0.0197490747255438,-0.0562759200028939,-0.0465005948693519,-0.717132356207763
215,305,-0.106242672224819,-0.134333880697378,0.945464952618676,-0.00344905849569436,-0.0687718998927264,-0.0253100953793162,-0.00287039371625242,0.0560753964163815,-0.621148799249312
216,306,-0.106054988180269,-0.134905329754125,0.945285075974815,0.00103138563132233,-0.0651682056750538,-0.030079224128651,-0.0022409651089959,0.152481480862649,-0.554740421300081
217,307,-0.105985922882819,-0.135508907144644,0.945106514863297,0.00232751598710772,-0.0627042843738711,-0.0338282999768588,0.0514804445739005,0.312417619741437,-0.548182682822862
218,308,-0.10601169075729,-0.136132874982635,0.944949338451192,0.00161653098680386,-0.0606864525300055,-0.0371163979056045,0.0443997004674433,0.398063655859852,-0.593206337083057
219,309,-0.106134899698059,-0.136761364306436,0.944786675727123,-0.00061430202708473,-0.0586540698695,-0.0407789204398499,0.0784233637221353,0.496793027811017,-0.624164010730984
220,310,-0.1063071199207,-0.13737889391374,0.944604620388226,-0.00333367515323112,-0.0571961240442628,-0.0436043704005616,0.098088136831927,0.57041360935938,-0.596310860417844
221,311,-0.106481380471755,-0.137855964341861,0.944384635819176,-0.00464303821599427,-0.0524451400928351,-0.0466661804988123,0.112927570101759,0.541538519552676,-0.567939193204627
222,312,-0.106654096071951,-0.138088961887053,0.94413191676733,-0.00565225854898762,-0.0444073362838556,-0.0491363902538327,0.0723739451310604,0.54650637169633,-0.509819117598641
223,313,-0.106833419011186,-0.13814665882323,0.943869399693041,-0.00536244705366321,-0.0347435135324,-0.051308554820901,0.0958713722040634,0.519200903193243,-0.463095790489393
224,314,-0.107006270678089,-0.138119129570114,0.943605569210321,-0.00481101321102493,-0.0244221164288934,-0.0530175057212455,0.10764459499409,0.459922148751439,-0.419395375090411
225,315,-0.107167142053002,-0.138080579775075,0.943346021117811,-0.00448922640762252,-0.0153078891624053,-0.0540131368452353,0.112174793250198,0.378176187987421,-0.365991035225026
226,316,-0.107303692145419,-0.138070768290117,0.943089879231272,-0.00492089843713083,-0.00706988121844246,-0.0545428421264181,0.0599145333095765,0.37045248716095,-0.324699137032728
227,317,-0.10743861994479,-0.138108099321407,0.942837732964226,-0.00603755850931273,-0.00211734900342154,-0.0534789296955541,0.0616947959405769,0.318324875056018,-0.211360205783695
228,318,-0.107587734037499,-0.138164820486135,0.942582386746164,-0.00804174019692771,0.00196509616685874,-0.0524126246295843,-0.0645220023583947,0.263744277138926,-0.158602101936498
229,319,-0.107784602091889,-0.138203726552145,0.94232213235542,-0.0107194044254625,0.00409543256292883,-0.0504607104757894,0.0269391865063961,0.211492935890047,-0.0835048935888803
230,320,-0.108005768423897,-0.138183662872929,0.942047410748066,-0.0124832570029648,0.0068611000615807,-0.0492747800979682,-0.0125176811071472,0.132946034235901,-0.0694434773231896
231,321,-0.10823919014683,-0.138076558137227,0.941663783054975,-0.0135688378293519,0.0104448521718989,-0.0493341431754899,0.000187386134781767,0.0917952183392596,-0.102590229653295
232,322,-0.10845486804624,-0.137913424005687,0.941247626078984,-0.0145965115224845,0.0139364381553644,-0.0490904217740899,-0.0332757841412912,0.0697032708131456,-0.0485614729622179
233,323,-0.108631518781778,-0.137723913088657,0.940838049371683,-0.0143014077527884,0.0169431666045826,-0.0483401886629326,-0.0543105531512501,0.0872839095556381,0.0191142821501317
234,324,-0.108755261204524,-0.137536513705166,0.940429996660622,-0.012257677251787,0.0199174153955812,-0.0480871631013029,-0.0524452334974339,0.0437904965873193,0.0258887209137199
235,325,-0.108870872751566,-0.137374499475765,0.940030114973664,-0.0114098603851446,0.0205221798998103,-0.0465863374262855,0.0341862413019127,0.0837828496005188,0.0752837633148148
236,326,-0.108950178489259,-0.137291408772308,0.939640197074052,-0.00970738130495172,0.0186342646937421,-0.0446474558458039,0.0527355985996268,0.14194282313809,0.128785313483584
237,327,-0.108992598545818,-0.137293997213691,0.939276952369829,-0.00679283359005495,0.013260128826769,-0.0392891077240894,0.149317168208462,-0.0797367842745457,0.447952883652945
238,328,-0.108978283303881,-0.137375403144403,0.938958916416163,-0.00543766305821422,0.0128171490588428,-0.0328687875533047,-0.187637935355982,0.60321255743305,0.51232068134321
239,329,-0.10890523140682,-0.137498664013608,0.93869681499269,-0.00584622899944874,0.00928164087203365,-0.0294477618227502,-0.348591423897083,0.209326394516818,0.249380748188765
240,330,-0.108803629580861,-0.137633768087291,0.938436605284959,-0.00576470921377484,0.00972664473341344,-0.0213169904825674,-0.350759669526337,0.486950123005596,0.808552446513707
241,331,-0.108672495428433,-0.137711504896685,0.938216741785444,-0.00405009683159649,0.0107726190432156,-0.0121660231740169,-0.295929680861322,0.501960803152219,0.969791060419197
242,332,-0.108272904650901,-0.137709876119056,0.93794758759518,0.00547450443453767,0.010967047581382,-0.00392501033690072,-0.179341257574119,0.41464126633446,1.03457510814813
243,333,-0.108528364456,-0.137067859840497,0.937822847430944,0.00834337391855278,0.017143055254778,0.00414501469439873,-0.0781375363022305,0.297747523955257,0.960435828421418
244,334,-0.108434038623747,-0.137046054672425,0.937719632039477,0.0125036726618968,0.0139383030078393,0.012444375340511,0.0868712034099764,0.162454173113631,1.03964882826545
245,335,-0.108547414534969,-0.137191349011736,0.937654623640535,0.0107993652181655,0.0083911873322468,0.0222881599355293,-0.0294062915236512,0.268982374378848,1.3299626496542
246,336,-0.108607586815455,-0.137249564768481,0.937642346356452,0.00742891773417181,0.00384214471302401,0.0351742805694515,-0.130219626579006,0.153377364175353,1.7300541436096
247,337,-0.108270451279793,-0.137013955357006,0.937675873412991,0.0111770826554303,0.00286004435762097,0.0501029569553708,0.158323913636192,-0.0289371643744868,1.95078365510625
248,338,-0.107585840213867,-0.136511922242059,0.937738871243086,0.0266148956872085,0.00701068775499487,0.0615837943047443,0.523063229159141,-0.261231851338748,1.73441824507847
249,339,-0.106700989598464,-0.135805098699131,0.937806577155328,0.0481821783321681,0.0158050657273481,0.0646954280273794,0.693461659736201,-0.477073577448898,1.07300705979968
250,340,-0.105808681343521,-0.134933116130714,0.937972116697886,0.0640738051704736,0.0309251123586353,0.0621881190269352,0.492159937546565,-0.46927140507185,0.494295199542668
251,341,-0.104472250468876,-0.1337824212815,0.93798953505967,0.0826278307100278,0.0542632882791369,0.0524020419403396,0.148028390547561,-0.337664552096141,0.0114193579813979
252,342,-0.102999866466112,-0.132703071651808,0.937997033507092,0.0956089264087663,0.0756214441662274,0.0408476965840177,-0.0238220144079706,-0.208498726647767,-0.299802918952754
253,343,-0.10196754506877,-0.131545549869578,0.937946340684818,0.0966781744985204,0.0937793113213212,0.029748101910836,-0.0275755774143749,-0.0914734723012562,-0.434782647326021
254,344,-0.101085523872201,-0.130465163467242,0.937838563732231,0.0932994119908443,0.10572920115235,0.017813375560796,-0.0415131818084454,-0.0562820893854071,-0.561729616184636
255,345,-0.100347670955555,-0.129385287480764,0.937679076158754,0.0890517213326415,0.111547322279113,0.00633642909856717,-0.0168239875955084,-0.0217059009049237,-0.578918520502983
256,346,-0.0996221915414081,-0.128315902210648,0.937506038343422,0.085418970996843,0.111765486778239,-0.00293006964011231,0.0528790435185413,0.0523071203742627,-0.558094805262121
257,347,-0.0988734857396723,-0.12727359632379,0.937346472728135,0.0821508016963597,0.107134475183388,-0.0101327114252856,0.0334792622388352,0.19558401074714,-0.55366693773347
258,348,-0.0980787497899412,-0.126321547720571,0.937238176029918,0.0783857913460483,0.0992358619841282,-0.0139776475234494,9.57231809968327e-05,0.325034302029731,-0.484805105126132
259,349,-0.0972119239473065,-0.125288788823507,0.937216999761467,0.07343215029058,0.0909416962813347,-0.0133849435910131,-0.121646606234384,0.410803194629307,-0.299501303017765
260,350,-0.0962976727519114,-0.124113088906482,0.937304214248383,0.0688842607758152,0.0883467254015954,-0.0103392415416292,-0.418490520575599,0.421775047878024,-0.078998726286148
261,351,-0.0953963670202631,-0.122686990600806,0.937525694180336,0.0649260456395787,0.0942534202786049,-0.0045515706152481,-0.742994435387372,0.479420794029011,0.245578899026668
262,352,-0.0945912011617986,-0.120986673736481,0.937917776120858,0.0619495164990551,0.106112048582081,0.00438085420465234,-0.888337976926454,0.425387334641174,0.599839058332303
263,353,-0.0939028638313958,-0.119075027051023,0.938505541917575,0.059534472397774,0.121106186737215,0.0174786868596426,-0.639970862960868,0.339441541288644,0.924584363460381
264,354,-0.0933063215133552,-0.117221949366354,0.939288764549935,0.0583274153504273,0.136576655379592,0.031304215687586,-0.437733528008887,0.210145374416643,1.06663174097438
265,355,-0.0928755335118387,-0.115417969208258,0.940238611201857,0.0546517267341318,0.148699016555608,0.0455342410914183,-0.355448220721983,0.219770885194525,1.03975744306278
266,356,-0.0925007473045001,-0.113727132482195,0.941289055462939,0.0447889786148609,0.151178947645912,0.0585623536028706,-0.311908890767728,0.159184031038185,0.835061516213654
267,357,-0.0923825511768678,-0.112377271134934,0.942395128604917,0.0385224461587526,0.149819289403894,0.0695256990275379,-0.181823477953482,0.174353603075583,0.713279930675093
268,358,-0.0923616392095333,-0.111251694495645,0.943561342459855,0.0325770240598381,0.143162539413272,0.0766970895217476,-0.205797962012251,0.0666074946631837,0.30182428038063
269,359,-0.0923846232462135,-0.110315225624269,0.944800293600475,0.0258713177074808,0.129709276879936,0.0794364144385269,-0.159444252232609,-0.0414904238894139,-0.0729361565092892
270,360,-0.0923950755817452,-0.109705317075233,0.945402055031651,0.0189352645870534,0.110236997666736,0.0777236428227285,-0.0701828138551159,-0.120323270283625,-0.3197576250522
271,361,-0.09230294406993,-0.10953303457703,0.945986853673561,0.0125998005739333,0.0860891101057215,0.0753043452037549,-0.0204232246431683,-0.0787964942611782,-0.457545268060908
272,362,-0.0920590157300852,-0.110247567530103,0.946466761891388,0.0105288604272945,0.0527677883200531,0.0691190355804222,-0.0413989596968215,-0.0523801086227916,-0.672401503080456
273,363,-0.0916236821676631,-0.112069113235731,0.946726765667407,0.0153129772310608,0.00857598508897906,0.0573372680069024,-0.0321916112995168,-0.147331060602782,-0.884199469670889
274,364,-0.0909915534677255,-0.114621581408506,0.946721602060265,0.0236903503545078,-0.0399121374533174,0.0427651089521622,0.149269179547573,-0.325222895130219,-1.02758245309262
275,365,-0.0901727227117671,-0.117349144356437,0.946459859965217,0.0347095229487788,-0.0825439781396873,0.0260609894214572,0.286825856081326,-0.544114398129595,-1.10910032772681
276,366,-0.0892141766666648,-0.119916464496756,0.946005571394528,0.04944711734183,-0.117762108646428,0.00876906369931115,0.621117304481161,-0.556956906242476,-1.20094414589707
277,367,-0.0882039201368072,-0.122125636945861,0.945453932959625,0.0618460322279712,-0.140808585700008,-0.00399157391484076,0.707507037904202,-0.349891726656458,-0.928672239224476
278,368,-0.0872159798629912,-0.123847108657668,0.944881135241507,0.0720237625108043,-0.15149248149331,-0.0151553919204477,0.827380795683651,-0.0619960337512995,-0.946570680775224
279,369,-0.0863384265780896,-0.125048790439538,0.944323847807351,0.0777376062210336,-0.153208718113136,-0.0223516705916899,0.863165023337861,0.035899374582698,-0.738135493585871
280,370,-0.0856032437503193,-0.125756608692037,0.943814039057744,0.0789014999115877,-0.146667768199876,-0.0270827330543249,0.815516634367533,0.267444946689325,-0.666247954718022
281,371,-0.0849875276164506,-0.125980680682875,0.943350823157036,0.0772948188021801,-0.131406431694697,-0.0309962163960207,0.701285729146027,0.410389425551504,-0.638677700788409
282,372,-0.0844653333042787,-0.125764901027326,0.942920041489058,0.0745431565757893,-0.109129288947494,-0.0344632965137042,0.549624050462578,0.518564526728473,-0.602876784002152
283,373,-0.0840006207751018,-0.125199131883594,0.942518326578834,0.0724350587806205,-0.0842815914060202,-0.0381105361226772,0.448538990760714,0.473320446874608,-0.588016850963205
284,374,-0.0836218851698964,-0.124431477933655,0.942146107199049,0.0683496231266632,-0.0600051870568517,-0.040490792629687,0.349849002236613,0.354270082436318,-0.528010817362281
285,375,-0.0833642174072738,-0.123591908796027,0.941807403432993,0.0616234857265885,-0.0367968539356902,-0.0418960963406165,0.24830422371185,0.254271605256651,-0.463296691947655
286,376,-0.0832304434900811,-0.122813866988952,0.941494046869855,0.05539276767236,-0.0174399290486667,-0.0445736741996853,0.187119127554634,0.139743785517903,-0.530733658971332
287,377,-0.0832515692136056,-0.122201304113491,0.94120726912142,0.046441562505785,-0.00422194552830669,-0.0466457424546735,0.24084877503979,0.0190199016059432,-0.570130121407563
288,378,-0.0834163123076287,-0.121782338307796,0.940942755806637,0.0358073456702429,0.00312976187252053,-0.0491933309065887,0.273830623885831,-0.0233378490390253,-0.664741429075411
289,379,-0.0836918963217679,-0.12151972228835,0.940680747396937,0.0254579473942087,0.00747044329761039,-0.0530263465687231,0.204068059165074,-0.1530821336427,-0.713129846774052
290,380,-0.0840980430548629,-0.12137481656953,0.9404145386409,0.0146043838072484,0.00879337540525658,-0.0564921060565344,0.157807340411146,-0.133186223469925,-0.698153787314227
291,381,-0.0846363376840164,-0.121273048011186,0.940135145064112,0.00344419798073229,0.00981072524278395,-0.0600646315958765,0.114823749874569,-0.152935050082767,-0.677798095063032
292,382,-0.0852830310462723,-0.121326828958099,0.939844593806776,-0.00768848532263014,0.00364690059126267,-0.0631609437876651,0.143659440819113,-0.328384498962963,-0.697515264651015
293,383,-0.0859209622059626,-0.121719934698737,0.939527578121135,-0.0162078748188132,-0.00798472221401783,-0.0678205173895821,0.150056687620687,-0.546479811395966,-0.780049370506536
294,384,-0.0864920081200555,-0.122576825554344,0.939186990018405,-0.0236519522514699,-0.0262464762627644,-0.0707325452508119,0.106484589379983,-0.516763050473142,-0.706507042983477
295,385,-0.0869579114659692,-0.123952068393895,0.938926924518484,-0.0277948655201584,-0.0504077806736588,-0.0725349514996142,0.142432704406133,-0.565420087708965,-0.67920301747447
296,386,-0.0872944559228826,-0.125841160742933,0.938698172327613,-0.0282036908380472,-0.0768829283442399,-0.0736331722786853,0.105340765038041,-0.453653772483457,-0.622420154394483
297,387,-0.0875261682652156,-0.128081597620015,0.938459878102176,-0.0290935483661534,-0.103256439423574,-0.07149029100899,-0.194335780723223,-0.276036448016203,-0.322244849470803
298,388,-0.0876388720191908,-0.130530073066522,0.938238879623518,-0.0266419420747555,-0.128827399320672,-0.0693838439465115,0.0256362889042144,-0.449020756676841,-0.289019617473001
299,389,-0.0876172613168334,-0.133130594446439,0.938005454764559,-0.0207995170303542,-0.156195736772185,-0.0688400586726386,0.0722160036846435,-0.720439629056576,-0.396003594324054
300,390,-0.0874811232672323,-0.135875261402581,0.937749038466188,-0.0169427684725588,-0.182338586814896,-0.0675379898575822,-0.0824297205643132,-0.966188952845721,-0.340619778921188
301,391,-0.0872223345676287,-0.138771032220022,0.937480234378685,-0.0126416628219122,-0.208106600203919,-0.0626099763708218,-0.237572753888523,-1.06632376011793,0.0746745987198815
302,392,-0.0868212923373328,-0.14174425939211,0.93721394761296,-0.00590722117316283,-0.231620990059842,-0.056434417868794,-0.328746386916636,-1.12488802842362,0.318832957310546
303,393,-0.0863050183894408,-0.144597851174954,0.936967696188893,0.000718539939196458,-0.246838632479843,-0.0458815671805243,-0.369184438482497,-0.874690216691362,0.808275486394102
304,394,-0.0856927566137738,-0.146916056205757,0.937309766352994,0.00813828934790194,-0.246299582739855,-0.0330228833322684,-0.356795416676387,-0.642249622326435,1.07037048566761
305,395,-0.0851971394962699,-0.1493743496102,0.937902344804112,0.0115958895089839,-0.242004895352101,-0.0171617989916823,-0.547912563508182,-0.6265322335123,1.22647194043397
306,396,-0.0850934897801805,-0.150525025860304,0.938206436199766,0.00342946411265528,-0.220912387717337,-0.00643217650156807,-0.976239848376429,-0.554140290084662,1.09846812514684
307,397,-0.0853438849554716,-0.151511645151284,0.938276010872402,-0.0104264501262869,-0.195108675974082,-0.00135695990742108,-1.16721399932782,-0.520652936824237,0.957555269444447
308,398,-0.0860286146070336,-0.151876258375281,0.938120901298828,-0.0260610986172631,-0.163719768308207,0.000412663190170499,-0.929044866834345,-0.556901569691578,0.861827638568087
309,399,-0.0868740619790449,-0.151780973727852,0.937825036427598,-0.0404983242134119,-0.13098711283641,0.0039092312107613,-0.769978979233334,-0.577594241027417,1.15934158086964
310,400,-0.0876784536793077,-0.151290349206414,0.937254321879754,-0.0500373279612064,-0.103011673941918,0.0128975630307512,-0.663736816729116,-0.982786772940493,2.27525443754949
311,401,-0.0884174086011099,-0.150110198590861,0.936889356389578,-0.0465077720924117,-0.0719791752784491,0.0375571293226267,0.05706927022931,-1.1711178021881,4.28378497588093
312,402,-0.089108504656894,-0.148751867763631,0.937310892704006,-0.0536771623521291,-0.0275659363865281,0.0743260068096035,-0.309582226833944,0.449293709291776,3.77759358801576
313,403,-0.0904376531015369,-0.148212255880902,0.938101197988227,-0.0782971420963595,-0.00264262806937097,0.100906037849628,-1.21055611554193,0.988658158451137,2.89412477618949
314,404,-0.0912290207324913,-0.148205993072501,0.938971873653217,-0.0887801593510272,0.00473311822714065,0.114325736755106,-1.26202434882655,0.323780745263028,1.82240186336345
315,405,-0.0917290315013078,-0.148970433607335,0.939842738505535,-0.0942468721247336,-0.014338394553492,0.12324949504619,-0.720090505533645,0.0167058094244653,1.1102705471452
316,406,-0.0917064394255697,-0.150032214925292,0.940695766229986,-0.0874408192901638,-0.0489301463447284,0.127119422154794,-0.224566064126223,-0.624066827465341,0.581160298697598
317,407,-0.0915710320220099,-0.151023090585884,0.941492890331507,-0.0703422942180608,-0.0832727848433242,0.127477145382574,0.0264353390199307,-1.29736504954521,0.500406479240465
318,408,-0.0915019089204713,-0.151548169423739,0.942231085045536,-0.0519674709081182,-0.0967778344727759,0.125646429811578,0.163459022583166,-1.06809581225384,0.469601696863264
319,409,-0.0916754579603822,-0.151322505118091,0.942888153679558,-0.0353147005911928,-0.0853840283622564,0.11710952981723,-0.140812187152225,-0.598347997655079,0.141043365786128
320,410,-0.0921872293342565,-0.150230655211522,0.943448501193678,-0.025126911914677,-0.058127917791042,0.104636564974408,-0.0408468519683129,-0.656206965427513,-0.171810397565719
321,411,-0.0929803231879725,-0.148552822979209,0.943912339940387,-0.0261954203075303,-0.025422372878654,0.0907958253453851,0.41857614249332,-1.15862080398919,-0.486126896676156
322,412,-0.0937616658581879,-0.146797157958983,0.944273165568378,-0.030118461235995,0.00636713404914751,0.0743430915099209,0.655890136552222,-1.26598582759287,-0.850897149815901
323,413,-0.0942982446842159,-0.145393680847552,0.944542173488267,-0.030385738202131,0.0317180817123741,0.0578176329111982,0.585483419572073,-1.1154127638153,-0.933160334900663
324,414,-0.0944313144005189,-0.144582336086378,0.944714356573856,-0.0253336437112571,0.0444026742649739,0.0421647272879114,0.480343354159195,-0.596118436210986,-1.02245167611788
325,415,-0.0942327408781123,-0.144528335099811,0.944847914538175,-0.0212325645519412,0.0456966400653064,0.0296273787547407,0.157974458141931,0.19950519551231,-1.11701921008084
326,416,-0.0940616304935786,-0.145309251313861,0.944965540832957,-0.0222864678836818,0.0326972960761441,0.0204758245649515,-0.0601517537769018,0.857852883030813,-1.04680944387489
327,417,-0.0943476575027994,-0.147406538622323,0.945111335681945,-0.0305152763122243,-0.00658144082239528,0.0146011805101077,0.0973452338834445,0.702732829825642,-0.890750626227408
328,418,-0.0950972751350201,-0.150989559027562,0.945310531164212,-0.0391321967159319,-0.0657271176573081,0.0104763798832373,0.250141434071929,0.442317675893204,-0.652525588252035
329,419,-0.0960698549166906,-0.155472587564417,0.945531048961706,-0.0463447189554774,-0.129869043104476,0.00580400436105945,0.12064967743395,0.229062536117988,-0.589840699495799
330,420,-0.0970955265402759,-0.16016561121177,0.945729607686727,-0.0535658701572085,-0.185727621966736,0.0016748076609579,-0.0120887822276927,0.228498653196496,-0.530863092903238
331,421,-0.09805954345794,-0.164624906502731,0.94589657633367,-0.060466784737838,-0.227348192745018,-0.00121723230479424,-0.1628896047279,0.445017962672935,-0.439774509297221
332,422,-0.0988853669857537,-0.168662687788548,0.946056654898472,-0.0676424120115137,-0.255460716155687,-0.00222100318707475,-0.217374105059912,0.53311216302153,-0.381597796218847
333,423,-0.0994968346785289,-0.172269556991532,0.946223977206966,-0.0722638933838311,-0.270650315918633,-0.00164444456018006,-0.284821541645569,0.651406305997553,-0.285861902080268
334,424,-0.0998808867817125,-0.17542719966838,0.946405432030138,-0.0733019619767371,-0.277092835777545,-0.00187728212867898,-0.214118261629212,0.618476479984919,-0.404540803925815
335,425,-0.100058935481408,-0.178082295943835,0.946591792274629,-0.0710216768207248,-0.27526361905454,-0.00278238102595322,-0.174356347586145,0.437299661394824,-0.486769381781176
336,426,-0.100093755369267,-0.180175701645224,0.946766775124095,-0.0643499309370206,-0.265404535023801,-0.00587627012330312,-0.13542574330134,0.318053106628987,-0.627365103217889
337,427,-0.100126763630133,-0.181704550536225,0.946927109670015,-0.0588232591003213,-0.249525798401608,-0.00914650864941095,-0.0240511702974337,0.185188047978002,-0.700652389286368
338,428,-0.100219959349505,-0.182769997214898,0.947074671309795,-0.0544949613394389,-0.229035541970268,-0.0110699195280942,0.162437994141272,0.125697791053597,-0.622031720998255
339,429,-0.100352251373552,-0.183496196292369,0.947197417380821,-0.0495418185442055,-0.202720174001974,-0.0133757983216972,0.0828105451061256,0.134876198542184,-0.549066905717331
340,430,-0.100457850376866,-0.184035093947304,0.947277244185191,-0.0420526850509776,-0.17569401453151,-0.0167262954283987,0.034460432158002,0.0676610449016508,-0.513981923882818
341,431,-0.100465597901479,-0.184513667186147,0.947300272040247,-0.0327493096839013,-0.15040083780322,-0.0211910346185624,0.0172533397788433,0.069017676076734,-0.543073984596172
342,432,-0.100206231491479,-0.184946668755857,0.947161806520655,-0.0191780234743515,-0.127900300904315,-0.027990952340752,0.0131497582472302,0.108795917389891,-0.630488655186869
343,433,-0.100026187980534,-0.186846982445841,0.947067932096138,-0.0110999358749689,-0.127643870933155,-0.0325325731046317,0.0522597536207662,0.193977789931102,-0.703079464083087
344,434,-0.0996423447549989,-0.187915835340224,0.946821745572082,-0.00270368664889759,-0.12254438014984,-0.0390118252319393,0.110729388648517,0.293649892182237,-0.795132811825951
345,435,-0.0990034393297142,-0.188908426023784,0.946444623151441,0.00362138895643498,-0.119472533010418,-0.0462737215499445,0.173117566408882,0.293900466356521,-0.853159882905687
346,436,-0.0987305831886457,-0.189761756953544,0.946034513103102,0.00963499831660552,-0.112051614619112,-0.0554226513269943,0.125122959631442,0.242602923058545,-0.936307799620739
347,437,-0.0986013336271855,-0.190351113566708,0.945598340418882,0.0134113059124855,-0.10193320251619,-0.0634691640716848,0.184001685044434,0.21459596315159,-0.924374047366923
348,438,-0.0986048325047389,-0.190668703076477,0.945165651111572,0.0154212350918057,-0.0871894432940512,-0.0709794047470725,0.116216120939299,0.158803970155432,-0.887967730921943
349,439,-0.0987347702571063,-0.190793958627712,0.944755951410674,0.0145431655467611,-0.0703489617710679,-0.0765261232374056,0.0227473506111663,0.181846775489065,-0.790497717026477
350,440,-0.0989529662876945,-0.19081287699808,0.944292235687517,0.0118666885683907,-0.0539171799985414,-0.0807493140355882,-0.014712550550812,0.213700694582785,-0.742593737018966
351,441,-0.0992158510701644,-0.190780474660535,0.943851153937044,0.00782430290728509,-0.0394686468075947,-0.0830075160903812,-0.0607525822585182,0.305290905224856,-0.659208581339668
352,442,-0.0994583619073604,-0.19080928942491,0.943465590851998,0.00328327283020921,-0.0286182969931547,-0.0821522424894367,-0.0705758985610737,0.440350351096378,-0.500284895489256
353,443,-0.0996751268572099,-0.190919794884124,0.94313699296507,-0.0017221407353791,-0.0207898470285608,-0.0785778507743109,-0.0724332630045489,0.601872838002691,-0.331217741559606
354,444,-0.0998726703882119,-0.191114052160501,0.942862376898273,-0.00563967335904928,-0.0155361120555654,-0.0732018317477791,-0.03711045953205,0.664286802654851,-0.169595837709787
355,445,-0.100073002341073,-0.191383867569261,0.942646481515125,-0.00997607498061195,-0.0129716274984486,-0.0650302830747345,0.0426902186360693,0.767390032741682,0.0550322907829427
356,446,-0.100309969324735,-0.191677278902893,0.94248129314358,-0.0136040739023823,-0.0107675903579737,-0.0564305140113148,0.0716759857096419,0.674619738640798,0.191189746927676
357,447,-0.100577761178631,-0.191941843534551,0.94234606860414,-0.0152726231506291,-0.00831399008409559,-0.0499884671819637,0.0114304047997302,0.576697689547727,0.174555308592563
358,448,-0.100853514120487,-0.19214374266555,0.942222146766275,-0.0161531242580372,-0.00561234664052502,-0.044727953661626,0.00643652098802842,0.365483100680143,0.188521507175681
359,449,-0.101091722825073,-0.192280200941744,0.942093567555152,-0.0159119145387999,-0.00177565360982074,-0.0414715436634155,-0.0337777748582851,0.264910758264695,0.133314347678692
360,450,-0.101265511772331,-0.192364434554882,0.941951279421192,-0.0155216077552342,0.00229891085853589,-0.0389588205436346,0.0140527475858714,0.078183774834148,0.0961240508199795
361,451,-0.101329704589328,-0.192424096669996,0.941786936218696,-0.013282690701167,0.00635133293572722,-0.0367389925705934,-0.060468104540191,-0.0547398688299482,0.145865208936074
362,452,-0.101288614919518,-0.192482196526149,0.941596007540664,-0.0105286055898294,0.0111889025671886,-0.0347961080600489,-0.145438088898925,-0.0719577592724437,0.179430179021499
363,453,-0.101176811356664,-0.192521084090516,0.941377402858149,-0.00797140766112732,0.0135870962523919,-0.0322965673368234,-0.161283945729603,0.0211167256795428,0.234374043407753
364,454,-0.101029486205707,-0.192584194605072,0.941140305475326,-0.00552384330254745,0.0137872539242484,-0.0304546661555043,-0.213330360483256,-0.0114436562299722,0.215181621674952
365,455,-0.100865877658575,-0.192689947184898,0.940894397526332,-0.00254232034247319,0.00889718377651453,-0.0265379580304411,-0.131757574514202,-0.0693538141680124,0.390188398942444
366,456,-0.100710911871309,-0.192827825115513,0.940657909070459,-0.00113438616555968,0.00373616940805082,-0.0203079546480422,-0.243564944292264,0.179571266628932,0.559980576030959
367,457,-0.100603710586938,-0.192976919548424,0.940459173423793,-0.00383276219580002,-0.00199175462231989,-0.0151092304552009,-0.493745465586393,0.148308638714215,0.428166181195515
368,458,-0.100568123799818,-0.193080821444688,0.940270254382894,-0.00431545246755216,-0.00577105955545924,-0.00880271612461391,-0.368332861605821,0.0685416386369563,0.666692055433139
369,459,-0.100577149401978,-0.193131680656965,0.940094703397154,-0.0037965437753628,-0.00822769205274516,-0.00160282425476859,-0.295964438936557,0.0545275573825679,0.832187496603822
370,460,-0.100599230224924,-0.193133068385016,0.939943167950708,-0.00245795733103533,-0.00897178527705893,0.00543271300910866,-0.0804810364885624,0.040548280145967,0.849893393064227
371,461,-0.100294637968835,-0.19310921139847,0.939774111306891,0.00688980407069451,-0.009707686814546,0.0112152104476943,0.0785583923058631,-0.0288010310743131,0.804666682431056
372,462,-0.101103724158258,-0.193112993034392,0.93967971383283,0.00103704584254076,-0.00884175436692146,0.0163366134469095,0.0871245076291456,0.0864110448026087,0.755712968399657
373,463,-0.100991807352117,-0.193304848367698,0.939587625877912,0.00474944247506853,-0.00804450192184695,0.0203737992994923,0.122614096053786,0.210909610974423,0.773052521183008
374,464,-0.10123592836781,-0.193458780353309,0.939517895471772,0.00354828918494305,-0.00490385978927803,0.0249131966825032,0.00903368154234119,0.298388157944131,0.849525427448925
375,465,-0.101583363870169,-0.193504103816049,0.939508067065828,-0.00298110287863288,-0.00138273574952341,0.0298337968800773,-0.129831525833559,0.252927469649475,0.858059791654162
376,466,-0.10210353003306,-0.193402031220347,0.93953320048051,-0.0121907583901174,0.00347721601547036,0.0361633901893984,-0.323116331218932,0.182893408413936,1.03501981819896
377,467,-0.102550485253889,-0.193230846275021,0.939584959293278,-0.0193719130368548,0.00774758288409556,0.045315415645664,-0.364054477858736,0.179866020534884,1.32954308262989
378,468,-0.102799111252266,-0.192897892695873,0.939641327564932,-0.0187194128658779,0.0116118780979128,0.0549616633663051,-0.0526359521405767,0.0578815928559007,1.44943385704421
379,469,-0.102718920123191,-0.192394279995754,0.939672962679764,-0.00887995075979338,0.0153715258937621,0.0615972190111534,0.314404177099879,-0.00318607390815222,1.24789840898824
380,470,-0.102277696979345,-0.191721296818035,0.939654732710491,0.00721751547944338,0.0219168472868831,0.0619347568305576,0.355505320948665,-0.141391171661582,0.78044886976963
381,471,-0.101582405778785,-0.190900665382343,0.939551205845671,0.0241875409444575,0.0321480523067743,0.0558645895591641,0.240201235004918,-0.24692006587069,0.289467221144149
382,472,-0.100915641988645,-0.190110388298504,0.93948365046758,0.0354111448693818,0.0449415463019292,0.0468335581333694,0.0789315385978794,-0.239553945783687,-0.0903843283293941
383,473,-0.100167378069055,-0.189228986746839,0.939382214839375,0.0420066826751627,0.0572706217091043,0.0371457781440093,0.00106947530989953,-0.210603347830826,-0.278362373099942
384,474,-0.099565083519652,-0.188428710326628,0.93925140350766,0.0428187163251871,0.0680375915430164,0.0281833464626447,0.0777187665384511,-0.0625848950221064,-0.350736919427365
385,475,-0.0990135367764544,-0.187644412183015,0.939095693640164,0.0421826949592233,0.0772422686388057,0.0193142700414825,0.0657531198292433,0.033445564803871,-0.38376398666432
386,476,-0.0984866892509426,-0.18687359265647,0.938917166827667,0.042101885185042,0.0843398972799474,0.010293176134986,0.00251155185240572,0.205264250711855,-0.427789845033943
387,477,-0.0979037177351063,-0.186090898294696,0.938717677075962,0.0451735263733323,0.0870557036467044,0.00131456020392427,-0.0850806202961135,0.259118455905239,-0.468770118712268
388,478,-0.0972599416416898,-0.185280035869816,0.938516289848043,0.0478552703765249,0.0861361356563093,-0.00490867123377392,0.0220923945337019,0.332509670702769,-0.430194762180929
389,479,-0.096545092300341,-0.184400462597047,0.938338150483237,0.0492597268609014,0.0840813289290564,-0.00807869739187457,0.10859537339092,0.417399592957886,-0.361737729948187
390,480,-0.0957409295172873,-0.183423809315998,0.938186365774004,0.0534551668274473,0.0827226500133117,-0.0108335751751777,-0.0192111096610382,0.420952377085231,-0.323384407746127
391,481,-0.0948864582068023,-0.182334047363271,0.938065137547851,0.0592198733685654,0.0821935567177365,-0.0123972125547379,-0.117805420572913,0.380835160939377,-0.231357578297819
392,482,-0.0940674474130979,-0.181175909596269,0.937992306559134,0.0636342266683869,0.0808576977234192,-0.0118904513525153,-0.201453130274726,0.306265784616852,-0.0971653158403958
393,483,-0.0933455377344291,-0.179993011860093,0.937981243729851,0.0664857067264759,0.0790472719914231,-0.00964924970207682,-0.229196016115886,0.0764080846371479,0.074136311889219
394,484,-0.0927478006443314,-0.178812802036647,0.938049726042351,0.0661410817940118,0.0787577427382937,-0.00452666912462118,-0.159474317754671,-0.0572726998874142,0.314182354206297
395,485,-0.0922500438314272,-0.177610341843181,0.938205475359837,0.0640986949594838,0.0831585801893753,0.00140704576733701,-0.166457949707877,-0.282298640670435,0.504719126106698
396,486,-0.0918476141823748,-0.176397491459724,0.938468272498517,0.0577011642390668,0.0905847496879593,0.00843509114678129,-0.202893018962099,-0.362400527478724,0.608808286892136
397,487,-0.0915306228223923,-0.175171089845539,0.938854777100266,0.0484587741296086,0.0996350865169566,0.0163846642779868,-0.325240987028588,-0.246088091452713,0.682588835836261
398,488,-0.0913030978567462,-0.173927524206426,0.939393467145043,0.0363457339818089,0.107956149023823,0.0271124081341077,-0.339489488449994,-0.274839098293446,0.811885882679202
399,489,-0.0911740292670496,-0.172743625999015,0.940101842301204,0.0230694469922742,0.113357144834099,0.0403252463546741,-0.257546524851873,-0.155107749398984,0.888538577025374
400,490,-0.091154527481965,-0.171709560875101,0.940976383626299,0.0114844367219737,0.117058700321497,0.0523254760635179,-0.292233156187538,0.0256345789239742,0.74349929694827
401,491,-0.0911405970250983,-0.170731254728694,0.942042228283465,0.00371795116783942,0.117743189874671,0.0623392295599946,-0.29920810638641,0.125022466428221,0.546130483589071
402,492,-0.0911191662978154,-0.169925226762044,0.943218209532926,-0.0018208001452938,0.112615694703215,0.0708901725611376,-0.267419173004182,0.258591153625759,0.315759997235322
403,493,-0.0910983504030236,-0.169279613747348,0.9444490854037,-0.00260402227239419,0.103827214313084,0.0747818897440238,-0.395444821941112,0.368140515929579,0.00788211620990156
404,494,-0.0910836690746255,-0.168772885953152,0.9456699197406,-0.00183504049609599,0.0926728988014575,0.0754595217384462,-0.356597920892934,0.351135817586325,-0.242286797504582
405,495,-0.0910757445615809,-0.168380467150007,0.946816878816805,-0.00153825971438419,0.0795843280307987,0.0719278733462196,-0.346269581496281,0.347388807330459,-0.561051793312559
406,496,-0.0911163692820488,-0.168113820849875,0.947820611787292,-0.00212643539052634,0.0651498533470133,0.0651112642494566,-0.344814869828177,0.139797724530787,-0.728899533091496
407,497,-0.0911965665886212,-0.168063941583602,0.948035800220935,-0.00360360142099545,0.0473903836671028,0.0563836129447991,-0.115041960513204,-0.0405378650219919,-0.770903654296591
408,498,-0.0912937817296395,-0.168370412108266,0.948184956235253,-0.00486982260532606,0.0254658736599124,0.0480505608919395,0.223599949908964,-0.136533195579628,-0.80130421220712
409,499,-0.0913080409113202,-0.169431680472757,0.948211633193092,-0.000363481040980352,-0.00595084659100274,0.037477958211019,0.381137904255694,-0.234759817848383,-0.857871469339801
410,500,-0.091184084106452,-0.171440633036172,0.948067048460111,0.00638901758935467,-0.0473138079282758,0.0267245848380448,0.600861039465176,-0.422253740296774,-0.842470114277382
411,501,-0.0909188427470149,-0.174051815926889,0.947727924818793,0.0142678171210355,-0.0921517154728572,0.0153299251924735,0.594132961373262,-0.541613624179632,-0.810053918598663
412,502,-0.0905659325996596,-0.17680695651839,0.947223494566812,0.023283304216078,-0.133172918589416,0.00405750633200566,0.806898368927763,-0.561523119379512,-0.81214450087571
413,503,-0.0901618972084608,-0.179396381000477,0.946626840627502,0.0312964262516753,-0.162406426937335,-0.00487537945185725,0.827040635602583,-0.34750495192051,-0.617352098610062
414,504,-0.0897395431388018,-0.181603819637828,0.946011693284255,0.0368166361493659,-0.177418330973625,-0.0123077960652342,0.723202359851887,-0.124947358029568,-0.522842533918759
415,505,-0.0893762313591906,-0.183325670628726,0.945426455074731,0.0364183881622046,-0.182118768849638,-0.0163018418423585,0.666397735280675,0.0558602718745576,-0.439472704098809
416,506,-0.0890641394419464,-0.184534004786222,0.944880194523045,0.0343430628402487,-0.175603254619724,-0.0204679505738386,0.56413011052883,0.162533735098851,-0.458415162490514
417,507,-0.0887956609111821,-0.185256887161672,0.944366950071794,0.0309153705445793,-0.160390856330286,-0.0253060891999597,0.428222762039505,0.213366352240263,-0.539110691367543
418,508,-0.0885945781506853,-0.185565011793443,0.943880930853921,0.0263386761071862,-0.139889706608044,-0.0302007114951162,0.380443710740896,0.254095830436274,-0.598232746749211
419,509,-0.0884888372296524,-0.185547654892915,0.943422313208526,0.0203629983222655,-0.118907512247797,-0.0347834985653627,0.358014087128419,0.13759386708343,-0.645621754483824
420,510,-0.0884646498522903,-0.185285284515236,0.942980602844018,0.0160894539635474,-0.0981872710667322,-0.0403181430618624,0.406979544380705,-0.0901379457443195,-0.731663120906248
421,511,-0.0885070445449521,-0.184890144420339,0.942556297489185,0.0130678987023139,-0.0801567452310435,-0.0451082104552963,0.537071284425004,-0.207987049720239,-0.749721815809683
422,512,-0.0885796922411271,-0.184478179789442,0.942139992973911,0.0126477442803142,-0.0645901140291486,-0.0506334122577187,0.616783432895542,-0.330981737955068,-0.809989119534769
423,513,-0.0886545622562769,-0.184119275271296,0.941739251385901,0.0130268698148069,-0.052178338458128,-0.0561631832512212,0.548297891992366,-0.284852406990553,-0.838958055509314
424,514,-0.0887528194371602,-0.183845850964085,0.941355372633822,0.0121258527750914,-0.042872390938895,-0.0603797754835165,0.464305985951039,-0.1529760731178,-0.807807844859389
425,515,-0.0888756817513086,-0.183640260138559,0.940990615477492,0.0106880058488169,-0.0355905579469048,-0.0638041230621592,0.405866595137851,-0.0274506176911703,-0.778856090355614
426,516,-0.0890224422007648,-0.18346448072551,0.940638522763927,0.00935584383569934,-0.0284582709780866,-0.0667872941705642,0.325128269091604,0.173030742719795,-0.7348674203252
427,517,-0.0892102672151186,-0.183304637648166,0.940299524053789,0.00686468924952447,-0.0233607347798107,-0.0687078105922527,0.33441948913822,0.241774907933134,-0.678817251611257
428,518,-0.089447510956838,-0.183138981000487,0.939965102021508,0.00401317603730638,-0.0189925727423697,-0.0707962040048578,0.325219879538751,0.208890677593503,-0.676624887003122
429,519,-0.0897450936569062,-0.182962848682258,0.939623434248268,0.00077961649093396,-0.0155475311357296,-0.0730649757116291,0.305698884854277,0.138409663579698,-0.683510342285562
430,520,-0.0901229548598397,-0.182771466081647,0.939262263290751,-0.00331590952259025,-0.0125465684955484,-0.076220872445577,0.225683914237427,0.102020247760323,-0.747532885251819
431,521,-0.0906264572918739,-0.182569026918932,0.938881658529396,-0.0109280154961915,-0.0111575891465251,-0.0782390916543739,0.137686913213761,0.0515747918607534,-0.712974616709348
432,522,-0.0912516771160205,-0.182348455711299,0.938509059950085,-0.020260237107584,-0.00862863132714491,-0.0763034892930011,0.0904755774065945,0.0417897566328444,-0.329009625399835
433,523,-0.0919665970674562,-0.182122064849488,0.938151452627809,-0.0274427000972481,-0.00934188695841511,-0.0778373342755006,0.348905189801851,-0.391509534247024,-0.675551811373417
434,524,-0.092730938960384,-0.181935149823909,0.937778049831771,-0.0337147958273667,-0.0120454740879869,-0.0774876717172742,0.328348876650335,-0.55450383486444,-0.475127396457236
435,525,-0.0934884805924565,-0.181806149427226,0.937405057317437,-0.0389881167481856,-0.0164656393767271,-0.0752053617374482,0.175045376032829,-0.661508740822389,-0.252019961324379
436,526,-0.0942275748492651,-0.181737167252158,0.937046900081414,-0.0437771482134164,-0.0223211417661215,-0.0691377851794554,0.0613176045080958,-0.878211156031386,0.141250125442278
437,527,-0.0949317856909486,-0.181769480179165,0.936730606360965,-0.0489424309380482,-0.0296505948317543,-0.0594982971206345,-0.114677196771221,-0.748098540809318,0.545782489893144
438,528,-0.0954313449937825,-0.182323652130826,0.937014997518764,-0.0476416525892051,-0.0482383698002412,-0.0487270652912258,-0.165427367552692,-0.68499243272606,0.682114213717882
439,529,-0.095288336190925,-0.182657689368746,0.937483342095271,-0.0379524594168198,-0.0570028006503585,-0.0358110472033874,-0.0925331214124446,-0.770920117525459,0.862298121743403
440,530,-0.0958298958158537,-0.183611998607307,0.937678553846196,-0.0414841006754121,-0.064576675250377,-0.0257099408536483,-0.53057833862102,-0.62512120125452,0.894774711999391
441,531,-0.0963198843490273,-0.184200467100235,0.937644893324646,-0.0506609825907087,-0.0633582367373752,-0.0193639933481786,-1.08862678690717,-0.689346471082437,0.984381057788717
442,532,-0.0971875245937658,-0.184824380015927,0.937441721126034,-0.0622747702869769,-0.0626265626437003,-0.0162268149848958,-1.09178285702645,-0.545979059439629,0.896344743754846
443,533,-0.0980470800079437,-0.185409764729289,0.937011583873961,-0.0732894347741648,-0.0662218090017444,-0.00593820401584797,-0.69392812558796,-1.07710412762042,1.93836855609833
444,534,-0.0987526886813015,-0.185860102334798,0.936760677177773,-0.0698671147583914,-0.0671567977892069,0.0173237343628651,-0.0671141871257959,-1.30119877463597,3.7733769919352
445,535,-0.0993616956665962,-0.186292002237074,0.937180874562261,-0.0704961990351353,-0.0500098071650776,0.0543498289798807,-0.0308773550072526,0.417317803373781,3.63144709212965
446,536,-0.100603331497394,-0.187406175101422,0.937949830302802,-0.0973136236203434,-0.036009641254744,0.0843542516263227,-1.26414213748441,1.77831717551869,2.93739200334192
447,537,-0.101423441804169,-0.188445597550553,0.938729168572334,-0.108411712999541,-0.0227274257116443,0.0914839450647001,-1.78178601658797,1.31634286378176,1.30037074993145
448,538,-0.102116078231884,-0.189708034348416,0.93943508076764,-0.11648343105907,-0.0324421245432342,0.0945855886920537,-1.35515415700884,0.732161164379433,0.635921646993282
449,539,-0.102596301318454,-0.190985705734385,0.940121258910433,-0.119861771614979,-0.066258743380322,0.0996139816670942,-0.829325666511703,-0.356615561805195,0.535766754900965
450,540,-0.103014102851382,-0.191860083676397,0.940786108766958,-0.110817702972458,-0.0966651888801322,0.100899057808323,-0.564354229559857,-1.41714129594129,0.516865739299253
451,541,-0.103519846771434,-0.192319569337385,0.94140988008997,-0.0912215868155986,-0.113152869454652,0.0972772749454606,-0.351376192604866,-1.66568178520364,0.45076018116208
452,542,-0.104120069157906,-0.192262384749751,0.941981777484044,-0.0678515725694461,-0.116153735248306,0.0921240087841439,-0.261252660616807,-1.53958598594566,0.491747669930366
453,543,-0.104806424475973,-0.191627312290296,0.942500644762237,-0.0478681130370018,-0.102409591878575,0.0876180999298707,-0.14988736227939,-1.29109440115496,0.605595859192567
454,544,-0.105550260629144,-0.19055959152748,0.942990158781878,-0.0422758674699795,-0.0793899496418641,0.0851347249071087,0.093155447649615,-1.03757012835127,0.521519495826248
455,545,-0.106124357132176,-0.189344137833409,0.943455509598373,-0.04037264446582,-0.0487101558076556,0.0793283958907584,0.466068212830489,-1.0447199854654,0.124897147895766
456,546,-0.106165687214977,-0.188155910128621,0.943876950550789,-0.0292556298157769,-0.0149158613549848,0.0702149698349533,0.510419354855439,-1.14230821540076,-0.173652584024588
457,547,-0.105552580940778,-0.187230016568818,0.944255978888414,-0.00976352924472498,0.0143851565735689,0.0603988539348662,0.193541269838736,-0.648345963898869,-0.418842748833921
458,548,-0.104526440168239,-0.186716996570934,0.944609730205006,0.00470905176902841,0.0337851701612912,0.0524496763708625,-0.183740474999258,0.395242313502024,-0.5711498093611
459,549,-0.103533942266395,-0.186642656569898,0.945013196351491,0.0106128772358761,0.0399126769730862,0.0499994160770568,-0.0478675557950266,0.968772134873762,-0.490869829820868
460,550,-0.102943581704059,-0.187057546878797,0.945497074890722,0.00880749845655968,0.0335986514653854,0.0489456630854957,0.0872015305992725,0.875539251368269,-0.493839506575465
461,551,-0.103062576448002,-0.188332182970859,0.946020164855085,-0.000829306954115345,0.0120471669211805,0.0462013668655651,-0.0246955207694801,0.454076744764518,-0.510470778175244
462,552,-0.103885943806101,-0.190619108705071,0.946515927319438,-0.0159483425961463,-0.0232570344607813,0.0413770330676362,-0.245679519661662,0.333378510453137,-0.497097633689554
463,553,-0.105169126315146,-0.193492433046269,0.946966474807576,-0.0353911663646075,-0.0634729025992838,0.0369536013478836,-0.348058922342423,0.320371453711252,-0.406217258109418
464,554,-0.106672733036146,-0.196427493086383,0.947366958341771,-0.0560671493078261,-0.1010639316545,0.0336522008446007,-0.412281671733365,0.348378220838951,-0.325100196557952
465,555,-0.108171136369768,-0.199249994951567,0.947720527818076,-0.0743850366639858,-0.13083414887782,0.031577621328958,-0.361561606860545,0.370151972350893,-0.220881990106922
466,556,-0.109444038525788,-0.201908115279189,0.948038255140175,-0.0868139226485861,-0.153382702148653,0.0306114958051867,-0.330320795544975,0.585378636462261,-0.131688471982278
467,557,-0.110362695926454,-0.204303146548453,0.94831979203512,-0.0916351854472953,-0.165609514879863,0.0268544542503013,-0.506806631527793,0.604022262920339,-0.315478562153837
468,558,-0.110952248981672,-0.206329471111149,0.948562232527405,-0.0906959484839938,-0.169770731343655,0.0224240842974225,-0.448910247033306,0.618907711554199,-0.43229734851553
469,559,-0.111319072327671,-0.207925294183223,0.948771238554675,-0.087537330885734,-0.166566921739531,0.0183612190685971,-0.35618958983611,0.596236330210294,-0.480776790045059
470,560,-0.11159798443736,-0.209125307166652,0.948956817994257,-0.0845855038408528,-0.158192533103906,0.0153251913621469,-0.0415941324784539,0.517652055153157,-0.490906383480472
471,561,-0.111839036921065,-0.210024245889759,0.949119982771175,-0.0808557369384084,-0.145539274056777,0.0129263296602917,0.0952212393786059,0.44240142660098,-0.443430260063105
472,562,-0.112070567379664,-0.210716270866183,0.949256222252109,-0.0767959280930457,-0.129853488696056,0.0104371546532702,0.0518034017597163,0.236495687738458,-0.404808245668569
473,563,-0.112297111010201,-0.21130341646091,0.949364333255889,-0.0719430203337554,-0.114821771960063,0.00855238898184355,0.0926427589354487,0.0268660369440714,-0.314108350384144
474,564,-0.112465871780233,-0.21188209676625,0.94943976559434,-0.0642645142003689,-0.102714573905953,0.00483391925597102,0.0368745512434334,-0.125636905791023,-0.382091490062719
475,565,-0.112540411367719,-0.212521557718984,0.949472611542811,-0.0550122476431902,-0.0939335176561865,-7.01361287571289e-05,-0.0175277015863836,-0.234503291214963,-0.454507564413158
476,566,-0.112474900298297,-0.213411457131125,0.949009319864253,-0.043199129580883,-0.094340240923014,-0.0131856782627948,-0.0676196791565245,-0.248987027876705,-0.578029783006111
477,567,-0.112555506832665,-0.214416569878679,0.948765456973847,-0.0344762025188203,-0.0960801044563366,-0.0208282148051816,-0.0111919077309704,-0.145816682999568,-0.606206717444892
478,568,-0.112460301048848,-0.215521645652009,0.948421030751685,-0.0249169906667304,-0.0987186610657953,-0.0290080836543717,0.015332434286828,-0.164969718279396,-0.677255547594438
479,569,-0.112427698022845,-0.216576178130862,0.948028901414851,-0.0173062144550484,-0.0996589540803768,-0.0376251272252096,0.0203815814696106,-0.1481612363889,-0.759735258929779
480,570,-0.112403239013419,-0.217620321092996,0.947619133482936,-0.0119862352126536,-0.10117050216826,-0.0459462023944944,-0.0639088890939726,-0.115817065397395,-0.808583723834208
481,571,-0.112459048611048,-0.218625179521845,0.94722805818457,-0.0107286748662982,-0.101038874962369,-0.0524942011235483,0.0261120732047845,-0.0670601457314965,-0.803081887294983
482,572,-0.112578828894972,-0.219609722242982,0.946884975104379,-0.00915921705693352,-0.100012742599821,-0.0583280185490976,0.0564460364637601,0.0740954959346721,-0.822359477323106
483,573,-0.112698543963546,-0.220493930516885,0.9465900360592,-0.00873329620166235,-0.0956219070083123,-0.0626304385871626,-0.0135617945591661,0.105366685562028,-0.813513443597794
484,574,-0.112881897691089,-0.221296152694504,0.946326038960747,-0.00995787178045037,-0.0901782236717494,-0.0653598903582054,0.0629916348663541,0.277093552100447,-0.729160757393802
485,575,-0.113109229506752,-0.221933576163405,0.946069945395444,-0.0132000507294414,-0.0799633126962925,-0.0658552440876255,0.124606073108414,0.402017264561656,-0.587872297100049
486,576,-0.113297342617437,-0.222263720953911,0.945787473176036,-0.0148086280964729,-0.06395219153443,-0.0670616712760659,0.0465121771309888,0.596197001419026,-0.574276517219234
487,577,-0.113417311971196,-0.222166060415883,0.945468033351144,-0.0146909523818995,-0.0422101196540936,-0.0682792453393154,0.0636831040684853,0.694770559390879,-0.535546353221071
488,578,-0.113495038857992,-0.221701788849113,0.945121299222793,-0.0130023530338753,-0.0177863470202084,-0.0700353004121718,0.00314835579256912,0.746330677791145,-0.529396035693791
489,579,-0.113570323632405,-0.221021473280558,0.9447633165943,-0.010661318823736,0.00501036799533243,-0.0715249913354504,-0.0051096103961315,0.643858343635352,-0.488358628475088
490,580,-0.113671017193308,-0.22029356822405,0.944411683590428,-0.00910892248154738,0.0224640873138131,-0.0717463276251874,0.0128044188813607,0.58660189393399,-0.40766044067977
491,581,-0.113811423160854,-0.219624413533996,0.944076268022539,-0.00893251412829582,0.0327946277585871,-0.0707788739869431,0.0853158897092767,0.420210745314319,-0.338211617731193
492,582,-0.113965640551056,-0.219084327661116,0.943757110861763,-0.00821287054046195,0.0377394547985444,-0.0689611303255,0.136989388394433,0.31971847161631,-0.248237517111875
493,583,-0.114141145414435,-0.218649814785207,0.943457121968754,-0.00899439260559134,0.0403519897971558,-0.0662120656175506,0.158478717554732,0.226107944964458,-0.165341454139228
494,584,-0.114322105833268,-0.218288104303679,0.943173629163882,-0.00931000954730048,0.0418090944245482,-0.0633513593791097,0.135825332287505,0.212867697681576,-0.0997460867903403
495,585,-0.11452403671729,-0.217952092875995,0.942904131390776,-0.0105556713413751,0.0436358541138887,-0.0601335988558327,0.0958939846999482,0.137382909716453,-0.0302542961834026
496,586,-0.114735790004754,-0.21761389107529,0.942642838330497,-0.0107506008828313,0.0456759510168632,-0.0568266990971588,0.0563039849817848,0.145768985352312,0.0465593996485374
497,587,-0.114965014867294,-0.217253978993866,0.942388764217301,-0.0111983474079307,0.0478067521266538,-0.0524408463221159,0.104152031031197,0.145442094752489,0.178617244553321
498,588,-0.115200589328964,-0.216874884438881,0.942222344542496,-0.011806814724073,0.0488125619259503,-0.0471952948848161,0.0861473469173809,0.174790296695047,0.251296499845642
499,589,-0.115444810145335,-0.216483499194922,0.942130065254646,-0.0121579584802304,0.0497251275111709,-0.0414480750673299,-0.00238416493000455,0.224997671919573,0.316957504048793
500,590,-0.11569078194052,-0.216102438801604,0.942048015561239,-0.0134455580866074,0.0479849225830689,-0.0351331315048088,-0.0780237528603877,0.199255217935562,0.382489126372305
501,591,-0.115952623740403,-0.215750300943102,0.941974007156773,-0.0153770847554925,0.0452467632815254,-0.0291536983936446,-0.0700613539107863,0.276203581476641,0.381139172031292
502,592,-0.116210165697988,-0.21542384996563,0.941902758163076,-0.017585385427637,0.0433187133057414,-0.023596525366089,-0.101543186687805,0.330312510569026,0.399904425648379
503,593,-0.116430710578943,-0.215132113114365,0.941839781720791,-0.017151530325962,0.0395939378302325,-0.0162399153479045,-0.0671605789261965,0.0822956534466742,0.651202697237193
504,594,-0.116616827451789,-0.214812644131603,0.941791158760735,-0.0194571883862655,0.0441904279248964,-0.0101914730353964,-0.51978083340341,0.539368212828276,0.58123210388644
505,595,-0.116804926930428,-0.214398457568551,0.94174610338193,-0.0221708093448445,0.0476602042087524,-0.00564860039387196,-0.520005662643858,0.218690999402492,0.534187578618841
506,596,-0.11699012605452,-0.213905816589287,0.941691603387084,-0.0235820106465103,0.0533960485941448,0.00429567800133004,-0.39613901358514,0.409078671444798,1.13132888008749
507,597,-0.117099853836675,-0.213293238073543,0.941539262681694,-0.0204975528646108,0.0580401231323822,0.0125207430807671,-0.167728086205888,0.0955919710831779,1.10564806150174
508,598,-0.116847043589753,-0.212723099927872,0.941238907970294,-0.00714174281415108,0.0568749665891004,0.0192942172645156,-0.00935081930554986,0.122113218407271,1.19318343649585
509,599,-0.11751335864036,-0.211734193552854,0.941113942614306,-0.0061694636170042,0.0581580911536674,0.0274447030003376,0.0758832771656056,0.064346172104275,1.1805323096051
510,600,-0.117413384793887,-0.211377393768729,0.94103141850842,-0.000945381667551733,0.0522986388564466,0.0356651658875331,-0.0457336314513726,0.171030272450254,1.28561291858663
511,601,-0.117755097301954,-0.21113567052334,0.941037280207347,-0.00639942416267806,0.0435855374680497,0.0466858156013226,-0.266807698059351,0.212880673375624,1.55882829532575
512,602,-0.118266442484423,-0.211024154721426,0.941138672151131,-0.0172443954117365,0.0321515537163027,0.0618353690237375,-0.31665059848207,0.0769116469821968,1.94747944846758
513,603,-0.118576062789287,-0.210818314822697,0.941290238910861,-0.0186333805825789,0.022007323300152,0.0781083824063349,0.226151662508896,-0.0945315974372384,2.09469133559829
514,604,-0.118455651810502,-0.210344492942637,0.941440464594195,-0.00459530442673447,0.0221037910159973,0.0877087925692726,0.651252371852174,-0.281413938022432,1.65548221980084
515,605,-0.117825858535322,-0.209581416647499,0.941519064805942,0.018614955493292,0.0301837295856806,0.0875872760494448,0.723802003772252,-0.301599844525458,0.961947840876051
516,606,-0.116898981210497,-0.208628420500528,0.941480484850955,0.0392901360660081,0.0497368175125034,0.0796231695226869,0.439057722256163,-0.15077054258862,0.328373292936796
517,607,-0.115823577140446,-0.207425419557514,0.94137204906904,0.0574252552543696,0.0756695250115702,0.0643475464436122,0.0744362797515166,-0.0948416460646718,-0.248514851053163
518,608,-0.114850479547724,-0.206175542153896,0.941111878047546,0.0671883686425169,0.0993632918118872,0.0470339959119195,-0.0876881664180565,-0.0825025790490395,-0.515012560428309
519,609,-0.114049578306032,-0.204983390527928,0.940731885332552,0.0687558144018904,0.11614840940519,0.0314680769564116,0.0329769872090254,-0.018519524933047,-0.532890919475533
520,610,-0.113313550205363,-0.203797829126936,0.940250272953396,0.0711526337390619,0.130483076741089,0.0146530285630096,0.0785549044112422,0.05947609001964,-0.610362425807083
521,611,-0.112521787334336,-0.202608305973513,0.93976277166219,0.0769427260845604,0.138059939297932,-0.00221646764724835,0.0593657041807211,0.035517879913899,-0.709756306403046
522,612,-0.111663319450802,-0.201457726536027,0.939321281583801,0.0780037294754101,0.134788415509642,-0.0129657228619464,0.249301102110047,0.18676212953909,-0.642886317712893
523,613,-0.110711989311611,-0.200199403560457,0.938965458752502,0.0776004149424061,0.126271777904428,-0.0195961771277343,0.328230782953791,0.378879575304283,-0.642343908798367
524,614,-0.109706626485146,-0.199019809817304,0.938682180859124,0.0770340040954155,0.115772683102856,-0.0239399108578398,0.241892044618612,0.485282032165058,-0.65628296508099
525,615,-0.108655191213689,-0.19765575802091,0.938487482498695,0.0765199506832729,0.109582182132768,-0.026651298494764,-0.0102010107457176,0.496073772964491,-0.618019864091999
526,616,-0.107660758492484,-0.196224266071549,0.938386990205687,0.0735577610372805,0.105967437637174,-0.0264156402869495,-0.240362307574654,0.345908783599976,-0.460381249129532
527,617,-0.106790647500098,-0.194666567828725,0.938386318164301,0.0691709643661985,0.106648918717855,-0.0236682524073512,-0.434910999384763,0.234987555718085,-0.240668742082824
528,618,-0.106126372475936,-0.193026756676394,0.938497907717533,0.0620894360480679,0.109040959627994,-0.0169159689723565,-0.557644637032154,-0.0106989581763549,0.134015470801095
529,619,-0.105677064921002,-0.19131255784256,0.938726940828833,0.0541026629769989,0.115367760721344,-0.00878002906987592,-0.562510233054229,-0.219483014840306,0.392427051922664
530,620,-0.105376110136206,-0.189591571591185,0.939082952011773,0.0469442602499215,0.121963061957924,0.000817530669460952,-0.527067129971595,-0.437637533853026,0.659603941818886
531,621,-0.105204778960504,-0.187867006537998,0.93960855689984,0.0343953740453227,0.129870614079367,0.0159560882891153,-0.461280176448352,-0.402388017177698,1.06135482291197
532,622,-0.105110358697005,-0.186110711617984,0.940329570848246,0.0226651078244563,0.140294890390212,0.0327154069109517,-0.429025083249869,-0.266028906462793,1.24292038459196
533,623,-0.105038778377811,-0.184302728914653,0.941220805277089,0.0150688522865253,0.153257367640876,0.0478113415642653,-0.360911164714736,-0.164182715756762,1.17804375845122
534,624,-0.10496103130947,-0.18249074752364,0.942244414913251,0.011393295706717,0.163932006743873,0.0602610522728314,-0.23531130608278,0.0271715187814027,0.936415393192958
535,625,-0.104784656711891,-0.18076474079219,0.943335282675292,0.0113211252037605,0.170647971747037,0.0686428417926614,-0.232485090903443,0.126106020732321,0.593858042330857
536,626,-0.10451539908616,-0.179303175318857,0.944516135742996,0.0133090465572127,0.169036162087849,0.0744324813689367,-0.229860986615831,0.354373210670795,0.209584761802012
537,627,-0.104018590945539,-0.177733933933257,0.945770444083006,0.0168298215342785,0.159445386546949,0.0749690537593111,-0.255132412034396,0.55649932505195,-0.263477909988403
538,628,-0.103599312690711,-0.176644070651468,0.946967441036883,0.0226481731029304,0.150614977765813,0.071012200433336,-0.262590343537713,0.406782145569294,-0.615677593234529
539,629,-0.103122922149017,-0.175580585590427,0.948026325497352,0.0287265605573585,0.145757332005999,0.0632787485823702,-0.265868920488059,0.415130227409313,-0.869279401491552
540,630,-0.102601380918854,-0.174664179646631,0.948399772563979,0.0336804029537646,0.137207357919963,0.0524807174784398,-0.175912760077335,0.24947285869797,-1.00091414418257
541,631,-0.102057688751692,-0.174080177163695,0.94866493651343,0.0393281649165773,0.120571042946469,0.0426622713673108,0.104418531961326,0.020770139018017,-0.964068092054476
542,632,-0.101452258469411,-0.174489375835261,0.948804808392375,0.047523484451312,0.0852075170321528,0.0324848474629257,0.340154756570932,-0.35320061995884,-0.944155724028484
543,633,-0.10061155031942,-0.176578926065271,0.948780378944033,0.0614178449197164,0.0187946188017472,0.0188681789182271,0.747193959996601,-1.43846109563622,-1.14785443333059
544,634,-0.0993958356814816,-0.180176020303004,0.948553862535658,0.0785868414900119,-0.0572628517665973,0.00564860727596265,0.701117077756636,-0.943230327667404,-1.10160092581377
545,635,-0.0978661931511841,-0.184541748407164,0.948157023199197,0.0972549352624641,-0.131436675136615,-0.00444834643345216,0.689900046402762,-0.567227471683441,-0.833938489105968
546,636,-0.0960779096828941,-0.189202240097958,0.947683261898752,0.116250221908248,-0.197834168762796,-0.0108190051435594,0.844662468330989,-0.556557788473671,-0.530683591456569
547,637,-0.094018141743585,-0.193894389792479,0.947209182621827,0.134384009720242,-0.25059911765882,-0.0150481237553396,0.839595209236004,-0.520522786104288,-0.392712850925157
548,638,-0.0917452645358929,-0.19849280769483,0.946764080023676,0.150425021537022,-0.291944035966948,-0.0166347510640927,0.689556021841865,-0.336149127034026,-0.255167353217189
549,639,-0.0892948653205261,-0.202949192808306,0.946364596224107,0.16338704740927,-0.32060213569213,-0.015466408329866,0.568000807081186,-0.143545973314401,-0.0734112004844513
550,640,-0.086775539838834,-0.207117555779812,0.946003036812252,0.17494263976656,-0.334941849447945,-0.0134356842327519,0.284347031910732,0.268200395142282,0.0571906931617798
551,641,-0.0842385762068381,-0.210962217846991,0.945646272170451,0.18694596574252,-0.338704669690128,-0.0151101676143782,0.159423394575816,0.211891566385627,-0.106393692226017
552,642,-0.0817637214716348,-0.214483064938467,0.945279605578225,0.194757124125491,-0.335604999843285,-0.0166183209111031,0.120435688027296,0.28006850646834,-0.136868433938254
553,643,-0.079451378455274,-0.217630450724493,0.944906932058381,0.197801181795419,-0.32975303811925,-0.0183744923633058,0.166696718292672,0.234380488760361,-0.23898313589571
554,644,-0.0772987791133685,-0.220369788266841,0.944509483613559,0.200763287612016,-0.319031812294089,-0.0230689494306335,0.248307033208705,-0.015524240816027,-0.397063719757815
555,645,-0.0752811057759838,-0.222744951126448,0.944080327307679,0.202181368052621,-0.305896218349057,-0.0284794382132891,0.273745041645918,-0.216455763938124,-0.425378675988524
556,646,-0.0733734726397051,-0.224719771041964,0.943610593106723,0.203612037620797,-0.287579711804509,-0.0363116221730473,0.196352855669343,-0.322851131031,-0.541126010219452
557,647,-0.0715642312870144,-0.226272420299176,0.943091383731202,0.204730545955325,-0.265992401199064,-0.0457747883468543,0.0869498312791033,-0.358165764920478,-0.650383178069992
558,648,-0.0698854926295365,-0.227409866421785,0.942540018061442,0.200092651259738,-0.241709974408761,-0.053762280473865,0.0550724590178102,-0.133740115664342,-0.715586124988361
559,649,-0.0683296292892122,-0.22820106458225,0.941969089761845,0.192217191856603,-0.218446105944269,-0.0604541875163327,0.167194872397403,-0.0753990793302284,-0.795210983287262
560,650,-0.0668390847148696,-0.228747894025818,0.941374546045198,0.183960117355891,-0.195807199348252,-0.0669156657440779,0.231941694460761,-0.0850118828355258,-0.836554772637171
561,651,-0.0653987655472746,-0.229125641535195,0.940758022203205,0.176519248916814,-0.17506769988154,-0.072794141012318,0.224039535311497,-0.0581050035688424,-0.83008805566519
562,652,-0.06404994544714,-0.229354878523964,0.940138408519674,0.167626108977556,-0.155954199738777,-0.0762263325287333,0.249096735119345,-0.00507663646037027,-0.72599903482927
563,653,-0.0628154845088285,-0.229422227490971,0.939521090772669,0.159787749828125,-0.138708641408669,-0.079339529977264,0.204549918919558,-0.0682489114461344,-0.668111002884724
564,654,-0.0617315652066721,-0.229302527842838,0.938913296379379,0.152273831240365,-0.121589721030818,-0.0810617703254689,0.194911457344136,-0.0234947936037101,-0.55075935233737
565,655,-0.0607960398645831,-0.2289557625138,0.93832146005682,0.145595356766272,-0.10474274427116,-0.0838679031616638,0.147635908203477,-0.223487587812512,-0.5590166645634
566,656,-0.0600415894170404,-0.228430375744354,0.937762377591441,0.134541374180391,-0.0878238238438537,-0.0829177167018858,-0.0726432680502851,-0.249689582716611,-0.283688718830618
567,657,-0.0594263084145578,-0.227771217345576,0.937268720833879,0.12473884238737,-0.0722101589466533,-0.0812488430363805,0.0187582310904209,-0.400136492602492,-0.200371954531991
568,658,-0.0589728740046365,-0.227042621734778,0.936820788582313,0.115113603540405,-0.0605004443779757,-0.080239514852631,0.093804128196635,-0.719483979266469,-0.320340968426634
569,659,-0.0586603158211385,-0.226292544829763,0.936399202584924,0.104062307192528,-0.0490187473375428,-0.0788737430400432,-0.146229379780768,-0.685520012469847,-0.254215039167814
570,660,-0.0584567402014023,-0.225566266397858,0.935996872037486,0.093065722063295,-0.0437174148789244,-0.0757839816495295,-0.244354889139697,-0.919992879725028,-0.0413975946351102
571,661,-0.0583417107288918,-0.224840257418055,0.935641211822106,0.0818576311923504,-0.0393296422302448,-0.0663297292851352,-0.0897962338716291,-0.995832045446229,0.599972635194462
572,662,-0.0582838621955596,-0.224064287152668,0.935369772120019,0.0702514079939104,-0.0329964247032004,-0.0523120648764159,-0.0194320462013875,-0.992852979570103,1.08237971838028
573,663,-0.0582604197294668,-0.22340047059594,0.935672161848409,0.0577465011348097,-0.0271050790370065,-0.0341737562276795,-0.0944060083237831,-0.788923954872173,1.53706843879665
574,664,-0.0571912903025118,-0.223189121460245,0.936221828589442,0.056876012581764,-0.0182187782622654,-0.0148154600261336,-0.42855602591768,-0.480921778018066,1.56706946521142
575,665,-0.0572661186622023,-0.222932000965976,0.936490014012338,0.0429510249506754,-0.00871858094374624,-0.00136724493642466,-0.829514479283511,-0.198738134357236,1.35045115682241
576,666,-0.0569519092683743,-0.222824200244305,0.936549795811044,0.0319859654795948,0.000874436237919626,0.00581874353546688,-0.878392413624867,0.198187607292467,1.06960209538924
577,667,-0.0571672502803048,-0.22263245155331,0.936440599523169,0.0172520827939172,0.0100184715965085,0.00851846944735906,-0.53403404382113,0.419530483996399,0.782687119870933
578,668,-0.0575930359535642,-0.222390929183584,0.936239755990426,0.00296528066632122,0.0161212279673672,0.0091210357964285,-0.432682452857476,0.185472296796918,0.790486719654958
579,669,-0.0581486703069558,-0.222121133417009,0.936047209260291,-0.01203785660113,0.0185375354248941,0.0135560387481593,-0.33182966406955,-0.201007568629005,1.27934228343562
580,670,-0.0587117572658248,-0.221676254744285,0.935981223517835,-0.0237039674634547,0.0225543449738455,0.0268958300705102,-0.0525788223273606,0.0532837002740661,2.02499045680971
581,671,-0.0592715629045218,-0.221078592604159,0.936115236817853,-0.0343996014376786,0.0395757290151873,0.0435232313898607,-0.0976144265514151,1.16054925938793,1.89249864065512
582,672,-0.059893129443848,-0.220491304619643,0.936366247117583,-0.0444912391220441,0.0597191006712229,0.0485832982861247,-0.853772287581431,1.61303133901252,0.881968969318214
583,673,-0.0606308624311593,-0.219617865526232,0.936456726274442,-0.0575867100439504,0.0630823902472045,0.0370809249467111,-1.42207986246599,0.654653107065742,-0.675670061972151
584,674,-0.0615446912109663,-0.218673818438974,0.93675199124147,-0.0732397886123105,0.0565667959193249,0.031552540996676,-0.704562814527337,0.0573255143042279,-0.696738124366539
585,675,-0.0629170131434485,-0.217697336174477,0.937094219765683,-0.0952356698104324,0.0417944466729952,0.0285086534876459,-0.384524298980158,-0.656213180588154,-0.749338600393226
586,676,-0.0647455800872815,-0.216933135484395,0.937438598037518,-0.114338078292444,0.0354090924662718,0.0238234144095822,-0.233496484483768,-1.1189977681824,-0.831200912557072
587,677,-0.0674072310433418,-0.215665084043574,0.937924143306962,-0.108256257898938,0.013270112139813,0.0198275563000342,0.704186298165577,-0.974962024145541,-0.358997425113667
588,678,-0.0688588209638882,-0.214858919214094,0.938285483906292,-0.119447814294563,0.00713480482037565,0.0145222639157973,-0.288951916761867,-1.77814786870591,-0.647044611161427
589,679,-0.0700934899340327,-0.214002829519698,0.938687183103899,-0.116800295749802,0.0068186611137354,0.0185251289214098,0.338313911053261,-0.872615350681211,-0.107139236421253
590,680,-0.0710326876664742,-0.213087319506016,0.939152372756241,-0.111534893295491,0.0141979972543197,0.0239741644880503,0.224555678076775,-1.12079923729361,0.0361251011444478
591,681,-0.0715359970718258,-0.212530617659107,0.939660141090932,-0.0971631549976901,0.0130888658597407,0.030217019360856,0.369264152331649,-1.16904472372726,0.191659217129056
592,682,-0.0715787708310118,-0.212569367775256,0.940186813539403,-0.0756906972426637,0.00179511673538301,0.0352246632657313,0.315871697784234,-0.915928203136043,0.215237298783154
593,683,-0.0713027955477762,-0.213192735650502,0.940722695925122,-0.0539188050429348,-0.0156052074825588,0.0400953341508266,0.249921165004489,-0.46536862384154,0.213758355020158
594,684,-0.0709350296809808,-0.214246844013023,0.941272915885111,-0.0381571656914096,-0.0324456416800416,0.0463116486105635,0.244972842361731,0.0279529673960285,0.29467923142138
595,685,-0.0706705190634019,-0.215505639480419,0.941836779006834,-0.0274653911306831,-0.0438751575318723,0.0516526421532608,0.221638075020384,0.393810057125002,0.356664770242445
596,686,-0.0706115189830108,-0.216778698287399,0.942391333403472,-0.0208590951402742,-0.0503080093792883,0.0535976707093987,0.136483151824642,0.396118172796902,0.273360169953188
597,687,-0.0707445550991986,-0.217936997128431,0.942895662100659,-0.0147450801964351,-0.0515916122039439,0.0504934842382432,0.0860405249546612,0.248802769242202,0.0884828995144333
598,688,-0.071029014503959,-0.218913821920285,0.943319502931944,-0.0118442286278179,-0.0507041111781347,0.0442598718575091,-0.0399950378322704,0.144306633810779,-0.0989432223601543
599,689,-0.0714650736189611,-0.21962560875192,0.943638058078149,-0.0126873369440562,-0.0483957839698623,0.0362514969714148,-0.185401793206256,0.231698005834127,-0.267426675142437
600,690,-0.0719623349462671,-0.220255892730222,0.943832747951969,-0.018117945512203,-0.0451850912632529,0.0285440016419086,-0.0814771957625328,0.250037721851059,-0.344524730269049
601,691,-0.0725445223690509,-0.220851036919421,0.943583339727185,-0.0257153764548284,-0.0434306263934299,0.0206341593796436,-0.183553514579214,0.584341842926365,-0.365545063230834
602,692,-0.0731709328780481,-0.22184290419236,0.943366653886701,-0.0342353706414819,-0.051734507656816,0.0118542703405475,-0.197782184613041,0.536019211658735,-0.530299127993663
603,693,-0.0737086338627646,-0.224264223507959,0.943188155256333,-0.040915859315783,-0.0906084078242255,0.00656047166865264,-0.314054026098525,0.751306690321129,-0.412984380684359
604,694,-0.073982728876365,-0.228699613707402,0.943097617354415,-0.0423468144428391,-0.161103053605145,0.00478429482585156,-0.269864334009647,0.688997622047527,-0.320141687409438
605,695,-0.073978423579868,-0.234148256201899,0.943097882248888,-0.0408371643759712,-0.232927228324279,0.00582765573381308,-0.262202212858412,0.590636026780467,-0.201853092675148
606,696,-0.0738857756858218,-0.239392700263809,0.943162249514467,-0.0386438751835369,-0.288628338895859,0.00768391716463691,0.00807394339205224,0.203678115740023,-0.199771613443596
607,697,-0.0737685906891173,-0.243857164059207,0.943257695323589,-0.0341955795847938,-0.322249719233204,0.0104410895527939,0.345307384700672,-0.140834381236417,-0.0896382249832241
608,698,-0.0735662364482854,-0.24749261508727,0.943394274020434,-0.0283737922799981,-0.334495413527365,0.0146586772834311,0.332464557409108,-0.117488626406348,0.0908949157358353
609,699,-0.0732129879133681,-0.250407023762081,0.943594376251965,-0.0202263724058392,-0.331597026360361,0.0197856615426104,0.289486476798643,-0.151204618434293,0.233774767583146
610,700,-0.0727105216021508,-0.252708325938502,0.943858974020464,-0.0100957300042704,-0.317169388123337,0.02444372524047,0.298945468384126,-0.279892983752339,0.268242869844636
611,701,-0.0721116746394344,-0.254530611933098,0.944173585424169,0.000879906031261081,-0.297791850357643,0.0274744930305827,0.239008369094521,-0.182010313207618,0.171478695971102
612,702,-0.0715009149769429,-0.255937214646647,0.944511946180523,0.0102716619893941,-0.272870796889404,0.0280398709953614,0.109856614701727,-0.150002704307438,0.00109353222435865
613,703,-0.0709289263645321,-0.257013013279681,0.944853953818513,0.0176996026460751,-0.246801894712201,0.027540391896922,-0.0103051817631518,-0.113716933174756,-0.0935978268776238
614,704,-0.0704045677102321,-0.257796554572749,0.945179016241709,0.0248515950810221,-0.218866356528082,0.0251997617300289,-0.10774657353455,-0.103592414365034,-0.196183086136565
615,705,-0.0699406234671354,-0.258304541718339,0.945469199498441,0.0310759929944766,-0.190041241961442,0.0215662450475845,-0.183402576313011,-0.147986303211231,-0.262377618585261
616,706,-0.069529116491576,-0.258557246504578,0.945709215676553,0.0361252301584058,-0.161126863328481,0.0163724068069546,-0.355289625298457,-0.125082312355587,-0.335661999077696
617,707,-0.0691694421744271,-0.258595632097872,0.945896516844634,0.0389382261536073,-0.133918038448836,0.0108294535948941,-0.375259225017899,-0.0587288087859725,-0.403628424639344
618,708,-0.0688640530660182,-0.258486803189565,0.946035726561409,0.0392622779939756,-0.110118467084022,0.00555197821838172,-0.38783386586908,0.0183860973848997,-0.444399068111329
619,709,-0.0686217255044224,-0.258278461295987,0.946135926405294,0.0368136329750902,-0.0883914227860985,0.00094713238387214,-0.329087144914432,0.202431431845504,-0.472035590297956
620,710,-0.0684302508766841,-0.258022364516007,0.946206111392738,0.032767619962173,-0.0699501045628403,-0.00288940694543189,-0.240010180321835,0.244578423295969,-0.476825828052565
621,711,-0.0682929381349359,-0.257770245241627,0.94625696716536,0.0275750672158094,-0.0545701699984536,-0.00601260647934568,-0.12252178204542,0.34705195242054,-0.485875359696513
622,712,-0.0681971491098938,-0.257572134425054,0.946298009171216,0.0218341535599559,-0.0424714996475488,-0.00812741578678947,-0.00546913139641467,0.418265609867217,-0.46747129149503
623,713,-0.0681190936869205,-0.257466857019861,0.946336173688889,0.0168255123172615,-0.0335887021048065,-0.00951943128003229,0.0694095951946419,0.451355760628457,-0.43431513599462
624,714,-0.067831719988269,-0.257466580784514,0.946341406183703,0.0182628396198403,-0.0267047558316501,-0.0104987623966841,0.140935679854724,0.459597545964629,-0.372432029222569
625,715,-0.0677044847256783,-0.257985658344998,0.946393999849299,0.0174296702610075,-0.026303119352728,-0.0106173437573941,0.120569544971033,0.406021605664495,-0.357101541557644
626,716,-0.0671397055391964,-0.258184680140045,0.946431011003499,0.0217909855020644,-0.0233335768768479,-0.0116282697079225,0.0460776006763427,0.345055571656929,-0.380528282983591
627,717,-0.0667591310206655,-0.258523360242641,0.946449157958377,0.0254498023564681,-0.0201510678830041,-0.0143534664624888,-0.0137955691813588,0.204479024628332,-0.464807067991552
628,718,-0.0663610445830631,-0.258843922950912,0.946466026088012,0.0292548076233746,-0.0186157913855926,-0.0170382321200985,-0.00838639920303424,0.158226158925418,-0.494809834824478
629,719,-0.0660265121072216,-0.259218307388339,0.946500608713073,0.0315330237204336,-0.018119661238632,-0.0189494329509123,-0.00349416985849967,0.0713709749274796,-0.488622058701644
630,720,-0.0657312001076417,-0.259653062329457,0.946570726638419,0.0332134443583075,-0.0200569826922251,-0.0192695075300452,0.00555345078487676,0.0505156520856297,-0.427307243998114
631,721,-0.0654878125399596,-0.260162426116732,0.946689701597625,0.0342247089413736,-0.0235395590934468,-0.0187811215385929,-0.00190625529729425,0.0231085557750978,-0.411630431579301
632,722,-0.0653134973694337,-0.260747671290466,0.946862349048868,0.0339595372429766,-0.0288911230336054,-0.0169744296585764,0.0214816015531909,-0.0101906171664098,-0.369405004246101
633,723,-0.0652095244848244,-0.261404921649115,0.947085038692384,0.031565810950571,-0.0357706043316197,-0.0137643849230747,-0.0288847450962554,-0.0788575762367898,-0.308441774894141
634,724,-0.0651964470690552,-0.262116635924145,0.947348535781662,0.0280415012825943,-0.0419872815275979,-0.0103303061393992,-0.0765575907247366,-0.127231741215061,-0.300962357370994
635,725,-0.0653033677243835,-0.262876639914204,0.947645849847092,0.0217165586724549,-0.0485152523721935,-0.00544468093129767,-0.182373393967045,-0.105120873532678,-0.200450423753233
636,726,-0.0655529283016466,-0.263649386917586,0.947973473742427,0.0132040171013952,-0.0540623841705234,0.000667028321538352,-0.125662245515482,-0.121559861131478,-0.105814464178847
637,727,-0.0659295166384236,-0.264418029976475,0.948316069843202,0.00375328112115392,-0.0581905098342056,0.00620475535538836,-0.206803436746941,-0.0844110268216288,-0.0964117792719565
638,728,-0.0664434342313869,-0.265156039459332,0.948658068988403,-0.00740600628132102,-0.0605908176661754,0.0118577433070774,-0.273989782538001,0.00590081756421988,-0.0429631072340945
639,729,-0.0670819557107511,-0.265836886543416,0.948987402093852,-0.0192088184746975,-0.0608151442785609,0.0174040872714036,-0.294235981070429,0.0873991994765241,0.0151793695658215
640,730,-0.0678227426662801,-0.266459015404405,0.949298826737712,-0.0321185821232543,-0.0599912349508384,0.0236331052641842,-0.290652106132649,0.166518396265772,0.106055257037319
641,731,-0.0686399532844054,-0.267011908395837,0.949586731886685,-0.0445606862180486,-0.0571723052718678,0.0297160939387051,-0.244263707689542,0.238805615303975,0.156916213727254
642,732,-0.0694990834802132,-0.267476676297955,0.949838075712739,-0.054955970127539,-0.0527482006065133,0.0349704964812947,-0.283423742602795,0.258657684176913,0.205752655089614
643,733,-0.0703774283680503,-0.267835301112802,0.950043557107521,-0.0639721786102481,-0.0469452848355823,0.0395236619224306,-0.212673913822501,0.19842638773129,0.218675867517007
644,734,-0.0712208020014829,-0.26808775838529,0.950190157623857,-0.0697760273060138,-0.0406838509374543,0.0427153927676107,-0.212199173565988,0.17455207391687,0.21449586078568
645,735,-0.0719589148925451,-0.268182719061943,0.950264999000422,-0.0716499919308382,-0.0320459904134821,0.0442096388367463,-0.196845201644628,0.140190129962518,0.163464823422817
646,736,-0.0726225998800451,-0.268127672141668,0.950285418728597,-0.0718025687517481,-0.0235915054430865,0.0456960272641342,-0.147368147606961,0.110435278656928,0.192968436803205
647,737,-0.073149970945642,-0.267946593278848,0.950284668034295,-0.0681396324337135,-0.0158268133069165,0.0482341193595614,0.0446924256727776,-0.0318645923205011,0.358979962080902
648,738,-0.0734704021064275,-0.267671971366888,0.950458983202054,-0.059769048175693,-0.00665107418558868,0.0555782907416857,-0.0363699829146075,0.0192009362479076,0.636284909319257
649,739,-0.073550737871517,-0.266965740080218,0.950739664207598,-0.0524529498925804,0.0104366026423509,0.0596806647222128,-0.388798339046489,0.214848580522108,0.200483093388715
650,740,-0.0732934430824819,-0.265782785578617,0.950723177983919,-0.0416581649295301,0.0305160025310092,0.0616398441788167,-0.322563815087767,0.0404610730132281,0.450571774721796
651,741,-0.0726864608933609,-0.264490855890594,0.950345147082189,-0.0276204953141668,0.0480758566372441,0.0613169926484499,-0.220694256614736,0.0479860292165633,0.702188287556509
652,742,-0.0718414385893318,-0.263298697625246,0.949699594994177,-0.0103878885989276,0.0590102883300591,0.0563776909988273,-0.167508158909384,-0.0349754069383121,0.645191137715594
653,743,-0.070886485818933,-0.262298220397939,0.948889086612435,0.0065362372486221,0.0633471289497523,0.0491075900701165,-0.122987172031739,-0.0635619263551186,0.558161295697692
654,744,-0.0699098476556699,-0.261527875915917,0.947996275097704,0.0211143310608633,0.0611908017134232,0.0408106861327471,0.0146391068517635,-0.109959174583373,0.431384068450055
655,745,-0.069108467422108,-0.261293412352548,0.947340929647443,0.0318973271570674,0.049744867652659,0.0352131413147241,0.191671300569644,-0.175756331116585,0.325952408581055
656,746,-0.069068699122,-0.260176899880518,0.946505405962241,0.0312049224590264,0.0507377045216264,0.0282724498412116,0.142693051671179,-0.213230593572369,0.382703467562682
657,747,-0.0690802349718401,-0.260264522579893,0.945711255776885,0.0251741424665287,0.0414459259538145,0.0230173362423925,-0.000347032825581028,-0.122359030193372,0.485955147197389
658,748,-0.0693596702066789,-0.260154904857621,0.945011880523811,0.0144433903176772,0.0340161458688302,0.0214643775341748,-0.0364520662435414,-0.115422670022184,0.686076267045226
659,749,-0.069691753225667,-0.260156976437504,0.944416547163709,0.00378795434853244,0.0277019826917032,0.0239047961690736,0.0130440535921667,-0.11654927510874,0.926493111444786
660,750,-0.0698582705395058,-0.260078263818706,0.943902232431554,0.00192088192488278,0.0224513163125925,0.0281495955837352,0.220960700722798,-0.169891448868889,1.06397572946802
661,751,-0.069682458906607,-0.259979931476961,0.943442686726261,0.00977822709912633,0.0185376978622102,0.0304203349662951,0.383893019137926,-0.100368154587518,0.875382089426372
662,752,-0.069137076284378,-0.259796089697361,0.943012306090575,0.0223115915032467,0.0171754086388149,0.0292224907829829,0.334115619264237,-0.0407597908385538,0.519687290542902
663,753,-0.0683261706243982,-0.259560583783603,0.942595150333129,0.0356743425333935,0.0170506081396309,0.0250573322740164,0.16196948788889,0.0209690668469705,0.184311372942633
664,754,-0.0674150387414229,-0.259285139212231,0.942166914765258,0.0472417417686405,0.0192679928494841,0.0172832024648958,-0.0983470953643519,0.0412428501896877,-0.140986103222202
665,755,-0.0665345180752365,-0.259025028417026,0.941724659837382,0.0545523542202745,0.0225107571032288,0.00858984085161351,-0.177173062598733,-0.0244020331651268,-0.321761132059012
666,756,-0.0658382327426322,-0.258841950110015,0.94129725502232,0.0559875546336591,0.0242606441962894,0.000716503415423871,-0.090707006902652,-0.0147985143046381,-0.390568584685388
667,757,-0.0653739790225041,-0.258773834702672,0.940910797375949,0.0510148826765896,0.0232186517767481,-0.00406410228718718,0.154834825150398,0.00969551555648568,-0.322007402273189
668,758,-0.0650227235606587,-0.258755817305539,0.940563041906979,0.0467517767283422,0.0241493994852217,-0.00997292841886264,0.224553113508704,-0.127841765892103,-0.390673589005415
669,759,-0.0646759690334847,-0.258715146583874,0.940236682902223,0.0439020756476748,0.0251975002163976,-0.01642552020549,0.155772224041096,-0.20698678952858,-0.435743397371248
670,760,-0.0643667044622727,-0.258644953937471,0.939954197805152,0.0377211739682263,0.0250095916333572,-0.018705870471552,0.106714357833349,-0.160773511921299,-0.252151541734605
671,761,-0.0639793149970901,-0.258387878262295,0.939748015630344,0.0313170210007857,0.0262039587287933,-0.0159475334650221,0.0935204070851463,-0.0322916720284193,0.0490945533956992
