,Frame,CoM pos x,CoM pos y,CoM pos z,CoM vel x,CoM vel y,CoM vel z,CoM acc x,CoM acc y,CoM acc z
0,731,6.91269736599193,-0.893927109354995,0.984960268046749,0.008607766214021,-0.0261557664302807,0.0264561433686433,-0.135122990791962,0.0309433304259234,-0.267360162112401
1,732,6.913002154682,-0.895054437590636,0.984938366557046,0.0104861040631822,-0.041767779948455,0.0218410932643975,-0.166304783973673,0.114601377514727,-0.241095887127086
2,733,6.91319156022628,-0.895863003413967,0.984873595576346,0.0121368568532233,-0.0495901861479563,0.0180081477347862,-0.259872241448026,0.15311718332201,-0.186995160611088
3,734,6.91328735735148,-0.896361285732681,0.984778753015375,0.0120022810875294,-0.0505365468821404,0.0133862777553843,-0.261875488298966,0.158143966455687,-0.25541463008317
4,735,6.91328602528268,-0.896560720736863,0.984649941623569,0.0084288892904126,-0.0453432964960573,0.00623440215218035,-0.190568516777535,0.0315257691649625,-0.466240208773814
5,736,6.91322979619378,-0.896515311226572,0.984493751874805,0.00519008886201638,-0.0376418811670972,0.000821803772304241,-0.211038135351532,-0.0186016146792463,-0.370165444636914
6,737,6.91311822197006,-0.896262031338901,0.984328992494532,0.00123767555055338,-0.0272842008582689,-0.00397363779926169,-0.183740331546418,-0.0609649108712547,-0.338068984389655
7,738,6.912970407739,-0.895880400908486,0.984156703485496,-0.00185344406745531,-0.0203239197078919,-0.00886026491165915,-0.136874427809472,-0.214958863912873,-0.418979722891106
8,739,6.91278377075433,-0.895395489904079,0.983969513913696,-0.00537602134541061,-0.0115413126075883,-0.0125353846318186,-0.195660592732339,-0.192418542436724,-0.287352176820747
9,740,6.9125936269924,-0.894862396995199,0.983790959796108,-0.00738334333803553,-0.00368700817796148,-0.0141372577473732,-0.191160997180607,-0.0894918882241465,-0.118332055794657
10,741,6.91237019780378,-0.894273520348033,0.983623301088819,-0.00928511750343,0.00491272474507393,-0.0156153785358625,-0.073687118886809,-0.0863312011013314,-0.111219999877266
11,742,6.91213284653631,-0.893617515773263,0.983464634109761,-0.0102470040727862,0.0133425480011305,-0.0166068819005684,0.0231410465785647,-0.0962255771173111,-0.101150465839315
12,743,6.91189435221446,-0.892907874971206,0.983315704041216,-0.0111722130556626,0.0206766284815255,-0.016721470111867,0.0727210159950242,-0.0867757826024402,-0.064646523395995
13,744,6.91167921058068,-0.892159990361082,0.983163055970103,-0.0102486928786412,0.0282080352215232,-0.0159638761323172,0.0244373213298679,-0.141905599850692,0.0128009108523586
14,745,6.91144371447079,-0.891427974402048,0.983025818334845,-0.0106764098448102,0.0334728083303737,-0.0153923599878541,0.080742677871693,-0.0472958585634828,-0.000790446986863917
15,746,6.91117385587807,-0.890720200623188,0.982900808159497,-0.0112520320309103,0.0384531072473134,-0.0150440981066148,0.0348880154638884,-0.150207117684858,-0.00284855865795063
16,747,6.91083407630891,-0.890072570004427,0.98278754030731,-0.0137852797209665,0.0403109036768419,-0.0145675094615393,0.0231359940386822,-0.140319174080046,0.00623895390889753
17,748,6.91043481267391,-0.889475713119465,0.982685607489007,-0.0163979794996699,0.0410199741595916,-0.0138130869637362,-0.0431025407357784,-0.180172353215232,0.0317168233946838
18,749,6.90993476088268,-0.888913798959722,0.982587206253313,-0.0225560955539467,0.041834508352226,-0.0146398079158788,-0.0258725283900411,-0.174766923561583,-0.0828142685204448
19,750,6.90932581203784,-0.888355467695987,0.982480492679011,-0.0307231652224646,0.0434630105829201,-0.0157995419775436,0.0389013753022656,-0.230415414880949,-0.105247760184365
20,751,6.90864053466428,-0.887830958214672,0.982367344799133,-0.0367061410606116,0.0428017143587583,-0.0159881035062396,-0.00724507589428638,-0.170025571184517,-0.0528899769050795
21,752,6.90793042961593,-0.887354803446435,0.982254275454774,-0.0406842535011912,0.0411038764951686,-0.0151436101838905,-0.0393898937687572,-0.0698844498448169,0.0228729884075471
22,753,6.90721464604968,-0.886897540399197,0.98214079967994,-0.0451925816167094,0.0408637526113525,-0.0147739042554781,-0.0266683361564398,-0.163464583653718,0.0224835052464135
23,754,6.90652835593407,-0.886452261159553,0.982028936287052,-0.047236925418372,0.0401631599801441,-0.0136263834710501,-0.00848433162051286,-0.137867238520069,0.0767123620079388
24,755,6.90587829977864,-0.886001136447799,0.981916877390552,-0.0495653256362901,0.040319845995004,-0.0130131019013219,-0.000448690277009709,-0.193092343626493,0.0533498815630808
25,756,6.90526182690285,-0.885531814012239,0.981797873216928,-0.0522287539055711,0.0414435646838602,-0.013442903124292,0.0547710799490512,-0.172044995583023,-0.0192541503302252
26,757,6.90469597973003,-0.885058955416204,0.981669875542311,-0.0536522547701372,0.0408589666338376,-0.0135096266610479,0.0371079252775421,-0.250064488748362,-0.000655257175459909
27,758,6.90419243552671,-0.884602381300138,0.981534922923261,-0.0536939709093521,0.0396705369964371,-0.0133763446417526,-0.0398681553774262,-0.194508499939631,0.0160198587522493
28,759,6.90373153732972,-0.884158709926795,0.981390043097028,-0.054300783100034,0.0374133148281662,-0.0139757795366333,-0.0411016356864879,-0.2680329354014,-0.0293129339277413
29,760,6.90333389233023,-0.883755298320046,0.981231199655472,-0.0522265805597236,0.0334337458058841,-0.0144233668370866,-0.145419839619385,-0.237275458398369,-0.0422809503830548
30,761,6.90297907064091,-0.883406565020615,0.9810619968021,-0.0507128736363256,0.0290867839371207,-0.0152755998087819,-0.195840015691485,-0.29417147329658,-0.0707476104274238
31,762,6.90262722188552,-0.883104811468337,0.98087441637813,-0.0505548492273719,0.0257469307551044,-0.017599266781153,-0.206787937065382,-0.297713116701884,-0.187783697009743
32,763,6.90225397305136,-0.88283656096773,0.980661717663885,-0.0523055068785288,0.0226180733912015,-0.0206768734143227,-0.153756175879944,-0.267446325743221,-0.266881010222779
33,764,6.90187841898257,-0.882610584633876,0.980428132010543,-0.0525321181249137,0.0190608169434804,-0.0232096611831948,-0.206536110228708,-0.229526193968176,-0.244924356706919
34,765,6.90153928383333,-0.88244603444898,0.980183371732727,-0.0507512846439335,0.0139060065060469,-0.0247186942231534,-0.358918495537638,-0.145750138561739,-0.179375091072238
35,766,6.90122289321226,-0.882336390619527,0.979932609967085,-0.0489494378538663,0.00936731740293653,-0.0264051803161306,-0.364950557047764,-0.168058762010236,-0.179790608551184
36,767,6.90090937329357,-0.882265188362814,0.97967489524584,-0.0487141214013505,0.00601156458200464,-0.0294101499489555,-0.358090870647021,-0.132782733548754,-0.308054727335237
37,768,6.90058910983505,-0.882221870880674,0.979385212873943,-0.0487256957167405,0.00249815729719776,-0.0337637613516434,-0.356482426631539,-0.21245534661094,-0.455278208361801
38,769,6.900275165073,-0.882214265034539,0.979089119948733,-0.0488544642363567,-0.000943265948542144,-0.0380646405597813,-0.430262382609855,-0.268842713857452,-0.437637699125628
39,770,6.89996676448802,-0.882223837507051,0.978870886851915,-0.0479675419867237,-0.00172974799698143,-0.0400534169137261,-0.34018998594973,-0.117614732257375,-0.281103174101302
40,771,6.89970219589033,-0.882212277870532,0.978781359334182,-0.04299377801978,-0.00294217675439426,-0.0282994804623786,0.0694989189125626,-0.503655667130003,0.847717791102626
41,772,6.89939521074005,-0.882134548664033,0.978833889533589,-0.0439014344531676,-0.00494920273555348,-0.03942019200744,-0.0728479483746725,-0.917699508786292,-1.34799031813022
42,773,6.89908463323729,-0.882129542353501,0.978749433865948,-0.0466844700754868,-0.00461446756772512,-0.0311246880861884,-0.439051391423916,-0.0838517724428401,0.716616081564678
43,774,6.89877985701031,-0.881994119152157,0.978751402754482,-0.0450968320022427,0.00209937013727756,-0.020701177822844,0.105658226894541,-0.031596152054213,0.909041239334826
44,775,6.89851878919072,-0.881739342893499,0.978878939071074,-0.0394923498792108,0.00697613328042623,-0.00835692612527355,0.280692948042536,-0.212831121133171,0.884921040049129
45,776,6.89833904176386,-0.881395433662861,0.979125286889861,-0.028786002004525,0.00906896387464544,0.00132088876620657,0.401416682975991,-0.143356817003027,0.525639791273573
46,777,6.89826304173421,-0.880960137561037,0.979409349105899,-0.0158426049969778,0.0123817887524022,0.0128300205092666,0.616539392372366,-0.303390437863015,0.930468816184923
47,778,6.89826330866337,-0.880468868641206,0.979745903980798,-0.00584396410708908,0.0144371766584616,0.0242905078524052,0.407396076765455,-0.21832636444655,1.10708205948863
48,779,6.89815639738976,-0.880064761448701,0.980006654405578,-0.00219413317108455,0.013078194123126,0.0321655484738759,0.134873473696129,-0.029903457909544,0.945483686377905
49,780,6.8980738730805,-0.879481354090774,0.980415820447686,-0.00304626212391994,0.0170322901614669,0.0375965605633633,-0.0638586788624553,-0.135726682279681,0.493362244049992
50,781,6.89789449098861,-0.878973323834534,0.980835220104467,-0.0076809713961988,0.0188043909358038,0.0374831782008873,0.020971733652349,-0.0922916431240232,-0.0752565573668223
51,782,6.89770840117728,-0.878521022459632,0.981164353183425,-0.0123484252434359,0.0204913905151836,0.0322751377886012,0.0475077642193034,-0.054626195640974,-0.436351160742762
52,783,6.89757308117842,-0.878182132474025,0.98136286864498,-0.0144376034571057,0.017440803128941,0.0243267324901638,0.111298361029697,-0.102125699468096,-0.571067717502624
53,784,6.89719423086703,-0.878625099805283,0.981549282156152,-0.0196543320089703,0.00529174737325192,0.018719414668575,-0.109717191291758,-0.123021341629472,-0.458081261058473
54,785,6.89723620876266,-0.878745537142749,0.981723083641963,-0.0223436949817214,-0.00560269436911889,0.0139233383940778,-0.339245999133068,-0.268151011387942,-0.420160552487674
55,786,6.89678043284666,-0.879233813864488,0.981889434691514,-0.0299934026526603,-0.0190958232128828,0.0116117509391264,-0.558314222476961,-0.265331815808528,-0.237795679776143
56,787,6.89606781894774,-0.879715165751823,0.982050564567287,-0.0399555554827381,-0.0294912787645081,0.0110884554362456,-0.528542374047903,-0.302300524252526,-0.102336288277096
57,788,6.89510995109089,-0.88022076623385,0.982218383841628,-0.0494295047046176,-0.0366776788365321,0.0116519869153388,-0.314355324297635,-0.260494600517231,-0.0514775116304583
58,789,6.89402454984256,-0.880719653376517,0.982392849755923,-0.0572806478029472,-0.0407992686899663,0.0112194086561051,0.013713654452954,-0.276108379933689,-0.140063866188483
59,790,6.89300030053042,-0.881189747809558,0.98255419780434,-0.0613307692917579,-0.0424054473445182,0.00875020848466995,0.124862448474614,-0.234966761166616,-0.283375861242368
60,791,6.89220787317353,-0.881631927338846,0.982697792041018,-0.0584585136006518,-0.0441019564231361,0.00658869635326623,0.0731016455656406,-0.165692177807352,-0.261573106785626
61,792,6.89163195768041,-0.882242287760026,0.982836697463269,-0.0491141500650209,-0.0475015190916668,0.00586596954464801,0.0835488647744508,-0.0428257810496986,-0.139931319265592
62,793,6.89147539125415,-0.882736379691009,0.982978393463184,-0.0339850093380062,-0.0455148520019692,0.00585113501680793,0.133094710433708,0.157935407471793,-0.0658862496692696
63,794,6.89163466647691,-0.883230623750707,0.983130821941212,-0.0145935863551298,-0.0426956933352904,0.00726550127604507,0.223678494558638,0.400489441530737,0.0409515435577021
64,795,6.89207929656323,-0.883609852413977,0.983293890569996,0.00321286531464654,-0.0355738608976897,0.00801073947425297,0.328573479784516,0.452668615306113,0.0211156006188599
65,796,6.89269865573174,-0.88388637615514,0.983462629703916,0.017549022177964,-0.0279985942625378,0.00780263398596396,0.363582871542324,0.407743373411472,-0.0612362165902656
66,797,6.89341595868641,-0.884101251836785,0.98366795282457,0.0281878558193084,-0.0211044063150436,0.00684745765950085,0.277762430402532,0.259928933022643,-0.122058998621378
67,798,6.89409321512316,-0.884193906167142,0.983837020055187,0.0346407830038627,-0.0174414229965173,0.00557483154629365,0.321859306728793,0.068519420107611,-0.184116116837905
68,799,6.89466264101518,-0.884263932084347,0.984012571623364,0.0364293073223192,-0.0170731075562236,0.00440167261779973,0.242105550986176,-0.120227018948904,-0.202467532756771
69,800,6.89507746707819,-0.884368662793243,0.984190322374161,0.0364170318223884,-0.0198562076701962,0.0038549502797213,0.336235034726973,-0.228944745463377,-0.165105688153142
70,801,6.89533073912257,-0.8845303363973,0.98436598978053,0.0349951852155667,-0.0238180442489387,0.00439262964160297,0.292852837867177,-0.18805386452652,-0.0798482510516942
71,802,6.89546720461395,-0.884738707319062,0.984532154425189,0.0321147100527411,-0.0278973729653027,0.00498848692551096,0.394953464900098,-0.188742832065732,-0.0503354705738011
72,803,6.89552573867599,-0.884999894406367,0.984686467350305,0.029781792537261,-0.0306011134256737,0.00593960496741068,0.382874341972575,-0.0282300955714129,0.00254291729137951
73,804,6.89552624400215,-0.885296605648243,0.984825117282475,0.0269918765331261,-0.0311402747446844,0.00608415985393477,0.447556348164372,0.0338383295873911,-0.0351289005528338
74,805,6.8955167757666,-0.885613291008046,0.984943799968932,0.0258909282017145,-0.0307139678673317,0.00593344132924807,0.441185915730539,-0.000667871794072866,-0.0271156858001253
75,806,6.89550015088526,-0.885981326687108,0.985046528342757,0.0248664859139095,-0.0310113294732499,0.00609900473511524,0.401006468579828,0.0337240132767573,0.012959672879128
76,807,6.8954704333234,-0.886402415411927,0.985139020588551,0.0239203369520842,-0.0308285594628339,0.00674110863193798,0.390421160735578,0.0677393491437436,0.0680335643647361
77,808,6.89542462842082,-0.886868557645202,0.98522724491086,0.0221290456403896,-0.0328588495741269,0.00809507555404815,0.356129644700078,0.143579684731422,0.137206439988007
78,809,6.89537446120614,-0.887360038579007,0.985312525736145,0.020769109467788,-0.0347478561554211,0.00941550124025514,0.339276734200069,0.206200632417483,0.150099619457006
79,810,6.89532277518132,-0.887844287969937,0.985395438993007,0.0189463215245274,-0.035689779105205,0.0108851817248247,0.289544720603417,0.275875496403036,0.182369224231195
80,811,6.89527265313278,-0.888305123582935,0.985477343338071,0.016618565908804,-0.0366472485573743,0.0124493197859169,0.348267202544477,0.31387566163022,0.198716404684677
81,812,6.89524135274471,-0.888677854747123,0.985558371138972,0.0150471365927471,-0.035690898930223,0.013463550806852,0.317395659338249,0.182020163464727,0.172689601586255
82,813,6.89520484333648,-0.889066402330427,0.985635750794251,0.0125901420243581,-0.0355012004031471,0.0142909004638671,0.272523165173024,0.141527498147862,0.161984839736127
83,814,6.8951704719646,-0.88939908467771,0.985707830960325,0.0108002679068087,-0.0344205269773532,0.0144025434679481,0.341164183147081,0.0240881417113379,0.10864509891722
84,815,6.89512351039742,-0.889746056463472,0.98577144781708,0.00951116317018928,-0.0343828725435476,0.0143688002939824,0.375846072581049,0.00132495057015225,0.0952950094190159
85,816,6.89507413248645,-0.89009216978575,0.985824881511022,0.00905515939822484,-0.0347403688608033,0.0138855688294956,0.378109721843118,0.00498111040294332,0.0554643969770539
86,817,6.89501112334863,-0.89044939811172,0.985864196110034,0.00815358701025669,-0.0353850910305027,0.0127702995290073,0.384005872889074,-4.49246162550468e-05,0.00419367434900698
87,818,6.89493655213126,-0.890803056873087,0.98588964621651,0.00751164600156872,-0.0342616812330417,0.0109579440495688,0.457060848911443,0.0400009505717199,-0.0621889860036998
88,819,6.89485673406054,-0.891184397538742,0.985904767725389,0.00684585693111354,-0.0355356161423513,0.0102742909947147,0.397801076498892,0.113990462915051,0.0163764587339303
89,820,6.89475658387406,-0.891611176307964,0.985916949274933,0.00669741038097132,-0.0375511656892159,0.00985564545847633,0.363347566242825,0.10182992932155,0.0494170931050974
90,821,6.89469487042561,-0.892064128504139,0.985929942606372,0.00716114836346948,-0.039485505099617,0.00996422348674079,0.259069316212503,0.144873869202173,0.0908908277641305
91,822,6.89464869278078,-0.892544083098829,0.985943368389066,0.00782078165425659,-0.0413812542850161,0.00999395870685759,0.221492582503007,0.148295944078795,0.086418098821425
92,823,6.89460182003885,-0.89304930502509,0.985957933480394,0.0079794226889312,-0.0431309858270532,0.0103725456669789,0.129637499391642,0.0772826581646373,0.114159429228854
93,824,6.89455139246206,-0.893578507313213,0.985973267624368,0.00804810348215975,-0.0444992782485096,0.0107820470934815,0.111348859788324,0.0921281576230915,0.123964157815439
94,825,6.89448746334181,-0.894086194553522,0.985985551099188,0.00656685372749524,-0.0432549364717933,0.0107976998870894,0.142122796211592,0.00311276489118138,0.0983167786010583
95,826,6.89441686378673,-0.894547276208435,0.985992433755508,0.00487538456652847,-0.0401174476745344,0.0107077920801231,0.205263307965999,0.0152276105299006,0.0835871650998478
96,827,6.89433573991512,-0.894960464437741,0.985993190743849,0.00271268805331258,-0.0370486978415254,0.0105337449796853,0.189267161321127,0.0164988508946436,0.0699998620312907
97,828,6.89424369084116,-0.895328814910988,0.985985832951849,0.0010128032805506,-0.0338254530585335,0.0100323118724805,0.144066488407276,0.0621625067628579,0.0393348798284384
98,829,6.89413500957314,-0.895662734186456,0.985967225157131,-0.000557059745630124,-0.0306288998774965,0.0089906146151329,0.114946722200416,0.144423316646648,-0.0141152219352661
99,830,6.89401120581665,-0.89597706287775,0.985934886922794,-0.00195602360745276,-0.0291974552222969,0.00776581452945716,0.0797507914236741,0.149384580231584,-0.0295636629896102
100,831,6.89388390052201,-0.896266320122036,0.985889196698826,-0.00272520425884298,-0.0272825134061551,0.00633766824680621,0.0531155739464495,0.131610689012807,-0.0446658696802676
101,832,6.89377105437223,-0.896547282454632,0.985831127938629,-0.00185020648775276,-0.0267897094460844,0.00526257158114174,0.0369774166310338,0.189457417259015,-0.00667903011650398
102,833,6.89369041418264,-0.896816457266974,0.985766793448899,-0.000751937136861701,-0.0269708315691458,0.0048883284086663,-0.00179199746301168,0.169354377063327,0.0554619027885548
103,834,6.89365236459757,-0.897074008431777,0.985699826007734,0.00136290571246043,-0.0268370327459307,0.00406281173459107,-0.0182125362855843,0.232228622919185,0.0219616738098377
104,835,6.89363829726982,-0.897279825748756,0.985631139301594,0.00130550397580896,-0.0233516951725636,0.00370949681119183,-0.0696840536726228,0.0961529752270026,0.0415416088908869
105,836,6.89361794726898,-0.897414629709348,0.985562552344429,-0.000334798778338239,-0.0180328081272084,0.00342073217813575,-0.0284429952009264,0.0471419366610098,0.0403048947113408
106,837,6.89359709837468,-0.897486609664803,0.985496009003571,-0.00120165065765656,-0.0131209381972712,0.00340915298320404,-0.0453951877001127,0.0298435716510555,0.0633119756462872
107,838,6.89358407228212,-0.897510852326287,0.985433763450464,-0.000643249087424285,-0.00908937750819041,0.00397993839591198,-0.0263980013201885,0.0428685234150404,0.122662824869293
108,839,6.89358164909213,-0.897490720450902,0.985377758796201,-0.000273196579710045,-0.00481607777553775,0.00405302166333971,-0.0453523906220294,0.0578701472888031,0.089170426904584
109,840,6.8935449157219,-0.897459621108929,0.985329344197719,-0.000925319740856627,-0.0017238237910957,0.00425035615392195,-0.0335829999373223,0.117719982907887,0.0864420543838361
110,841,6.89351306056122,-0.897396856877557,0.985287108349459,-0.00128897385755247,0.00117666783507047,0.00439980460657005,-0.0696216029507762,0.0475336877073786,0.0746539731552539
111,842,6.8934631450527,-0.897320041326397,0.985250751219974,-0.00219788676774438,0.00381658148014008,0.00411281994681037,-0.0570830704981712,0.0385953802408101,0.0279909511016539
112,843,6.89338546749084,-0.897225178149903,0.985215277787021,-0.00352440852314968,0.00612806148991717,0.00325037358015954,-0.0170839112095864,0.0756089241541875,-0.028313927230498
113,844,6.89328910818657,-0.897110825325658,0.985177500114591,-0.00511584648137233,0.00828223266665255,0.00201600800314493,-0.0562427504865263,0.0770673701532122,-0.0674471335710378
114,845,6.89318118012546,-0.896983556851193,0.985137192832157,-0.00581892450932843,0.00994955712086814,0.00088556402147348,-0.0137321600451171,0.13040799986288,-0.0639390214146302
115,846,6.89307078187852,-0.896845302612283,0.985097340139397,-0.0064387548895034,0.0115440755530636,-0.000483429262509562,-0.0369767524123481,0.0997742936101045,-0.0979152161349688
116,847,6.89296060661731,-0.896709438647462,0.985061667855481,-0.00713242014506167,0.0125999455394767,-0.00101798870836997,-0.0580143599128291,0.120552864480136,-0.0466678063733803
117,848,6.89285090165813,-0.896560109428623,0.985033162100929,-0.00779252118844231,0.0146000164202068,-0.00177396888985478,-0.0759277632944949,0.0772742792064728,-0.0719727292670729
118,849,6.89273321677233,-0.896412414914946,0.985009822068333,-0.00838247825505074,0.0152311973278504,-0.0021413163924284,-0.0931100423028609,0.0964572309293754,-0.0483040547361019
119,850,6.89259223201274,-0.896261547173608,0.984992707296712,-0.00974881864884053,0.0158712334150999,-0.00240831079697628,-0.0572088754281065,0.0839865823703016,-0.0444512596706099
120,851,6.89244957415858,-0.896116813371167,0.98498358177667,-0.00952841360436249,0.0158667085227767,-0.00238595843911831,-0.0582307826231367,0.100463031518129,-0.024145235976488
121,852,6.89224896939164,-0.89602902455089,0.985047253178707,-0.00917731182176695,0.0137869437489397,-0.0018818117494492,-0.101568400616787,0.120363928908868,0.0351090665595796
122,853,6.89210152381864,-0.895949263057354,0.985046966912175,-0.0100349368831297,0.0129344835874171,-0.00201134012264265,-0.0337206288211753,0.0255941837097106,-0.0386040733906299
123,854,6.8919482959928,-0.895951757958437,0.985052299387209,-0.0104705844021757,0.00727556897229393,-0.000988360798784037,-0.0708258565865687,-0.0304346081449758,0.0270080909913138
124,855,6.89178424162335,-0.896021153015803,0.985068687136109,-0.0117342311484255,0.00198711858694676,-0.000638477232489239,-0.062743577271151,-0.145789755671593,-0.0265116777703742
125,856,6.89160472390572,-0.896150984621962,0.985085411981318,-0.0134223386871414,-0.00258181028179707,-0.000610389554556618,-0.026484990369828,-0.196710458322485,-0.0418098163730185
126,857,6.89141450917295,-0.896456838070765,0.985101792716377,-0.0146852462236277,-0.00837902987945661,0.000366920859209389,-0.0286061048451537,-0.0252936754328652,0.0529539822297387
127,858,6.89121818058657,-0.896694385645502,0.985123418607778,-0.0155672020167592,-0.010102969177427,0.00152405478944467,-0.0275053978980506,0.0638979222511788,0.085958806578667
128,859,6.89102203220257,-0.896885084391084,0.985155029702788,-0.0171450847995814,-0.00992981467524983,0.00290711380810099,-0.027980186322159,0.159150395633195,0.106625511298233
129,860,6.89079405022719,-0.896973615128711,0.985196483357584,-0.0177972761843322,-0.00782627969642096,0.00408715489993722,-0.0970572762520611,0.0911262455407588,0.103693947953446
130,861,6.89057940006109,-0.896982087479576,0.985243255542284,-0.0182184454030772,-0.00598511768693465,0.00488767591362801,-0.0519403391797606,0.0795987623660611,0.0797773815314848
131,862,6.89035861506992,-0.896914674321001,0.985293145924129,-0.0186582560248544,-0.00357019163735177,0.00511752314378198,-0.0240273121636352,-0.0290720990046134,0.0284760393810894
132,863,6.89013865920697,-0.896806246967421,0.985341585882066,-0.0185441466904765,-0.00234258600147677,0.00487476064241803,0.0135365566364914,-0.0599625946821729,-0.00748317697170608
133,864,6.88992720591452,-0.896671107583832,0.985385183082555,-0.0178793831472094,-0.00197660136530435,0.00457890534062005,0.00858019682681534,-0.125737063672178,-0.0117231555121699
134,865,6.88970560592775,-0.896492855277798,0.985421377255477,-0.0187443331756807,0.000775904751248966,0.00338408831021878,0.036708096978395,-0.240535198326736,-0.0943404557289833
135,866,6.8894923855988,-0.896279815292546,0.985450081360851,-0.0186385581720256,0.00406643670136155,0.0023870527551682,0.0646356209084853,-0.249899512948151,-0.0929716399754179
136,867,6.88927206735479,-0.896057020305436,0.985475047201943,-0.0192385637146997,0.00565194949340586,0.00202343484082495,0.00830149807153914,-0.249089587075417,-0.0404874137856153
137,868,6.88906223983192,-0.895822637691418,0.985496329827472,-0.0184156191369035,0.00708575538209852,0.00133747840297208,0.040378201685254,-0.272816042493596,-0.0562856905339353
138,869,6.88887054590004,-0.895581313667156,0.985515947342184,-0.0182338630605181,0.00861052754732971,0.00109516081145822,0.0152133026677896,-0.226634240492996,-0.0237462190684237
139,870,6.88869354844997,-0.895344568060838,0.985536899803495,-0.0181895910385836,0.0095956253435948,0.00105542305304269,0.0283339619213103,-0.232876664180484,0.000737406757490702
140,871,6.88853299934967,-0.895122551513099,0.985562455462318,-0.0177907247139002,0.0104574910889016,0.00121914922309968,-0.0188146112652711,-0.231894660407736,0.0163935760235392
141,872,6.88838797339416,-0.89492924992036,0.985592286728185,-0.0162555702457741,0.00973045628048938,0.00186511266223879,-0.0361091410804051,-0.245283438492042,0.0619483643106014
142,873,6.88823336253065,-0.894760145736849,0.985623749221545,-0.0158475959678228,0.00944512069503168,0.00176632556750378,0.0371390611590797,-0.253328117182762,-0.00439017687951062
143,874,6.88808437395631,-0.894626576540923,0.985657235190448,-0.0147217441344172,0.00856209136483556,0.00234676050708098,0.0311711005774487,-0.161238416357812,0.0473038797803564
144,875,6.88794577326425,-0.894518176725057,0.985695555389012,-0.0133616182018213,0.00701280908044693,0.00282709636738456,0.035063984381039,-0.17273520523894,0.0471868297241424
145,876,6.88780310566558,-0.894414102534807,0.985737137137396,-0.0131139555585266,0.00653395206211194,0.00273988688376168,0.0365406020655957,-0.187571264636344,-0.00291148044795665
146,877,6.88764948371189,-0.894321336446724,0.985781818871788,-0.0130341641353195,0.00508621664250054,0.00305644730619028,0.0521720805562424,-0.195486103894596,0.0271626871183693
147,878,6.88750094750826,-0.894241368519055,0.985830224890579,-0.0122299708357232,0.00313760650404136,0.00328261510694619,0.0415507471658245,-0.190234233096372,0.0242558891290179
148,879,6.88735404965125,-0.894168750222344,0.985879014074646,-0.0122273019732472,0.00212169428637108,0.00282055916630043,0.0429404447287988,-0.187810411654864,-0.0418433623290935
149,880,6.88720900713575,-0.894112754097822,0.985922667222443,-0.0125630635632864,0.000740430009669624,0.00194884218429414,-0.0141528033115057,-0.196506671482313,-0.0770492079263361
150,881,6.88701712891894,-0.894078292058347,0.985961183970953,-0.0141776658479543,6.77436504996535e-05,0.000862792715714503,0.0237794619688658,-0.230664584199018,-0.112461780275181
151,882,6.88682862301188,-0.894067882717102,0.985988295464853,-0.0156166028598009,-0.00140248390260573,-0.000749515780148307,-0.0170355192931273,-0.28585091642921,-0.162184671092722
152,883,6.88662613996665,-0.894092162893661,0.986011829950373,-0.0165721633157864,-0.00299289979132538,-0.00171826756992796,0.0316261863586355,-0.22158932842081,-0.120012641248775
153,884,6.88640821708386,-0.894162934855,0.986029759507407,-0.0167189379948891,-0.00494544565113378,-0.00254050825341183,0.0313994830884056,-0.144302963742225,-0.108866148559219
154,885,6.8862015460296,-0.894273796892442,0.986047258084676,-0.0157758578365958,-0.00737867818874595,-0.00335575195962502,0.0191104528290817,-0.17954403775172,-0.119056459922361
155,886,6.88600894800671,-0.894426856234938,0.986061707361989,-0.0138959665756615,-0.0102932447847255,-0.00391665383133861,0.0325374377373018,-0.0964885588525005,-0.0963737588525348
156,887,6.88582953250015,-0.894593550712844,0.986070154317779,-0.0130303039956803,-0.0126548205418053,-0.00463865651933314,0.00551806328895694,-0.08138026928253,-0.113158450662707
157,888,6.88567299798683,-0.894764766037668,0.986071959206203,-0.0118438241631081,-0.0144632097561578,-0.0053669806457814,0.0365371984844223,-0.121940792562975,-0.119487994207507
158,889,6.8855368160136,-0.894923404785954,0.98606614354544,-0.0114752481831806,-0.0148947160015656,-0.00637740937521334,-0.0163712226938566,-0.0697027734272237,-0.145014258081718
159,890,6.88543068268787,-0.895059250160518,0.986054270748607,-0.0103903002317443,-0.0162424058626084,-0.00708975903465773,-0.0264400073268251,-0.130790199140495,-0.120281155982087
160,891,6.8853286952483,-0.89519280349267,0.986034197780566,-0.0100821262654649,-0.0167644445548559,-0.00775263407663625,-0.068474717528991,-0.165328343842902,-0.116185295487375
161,892,6.88523707003264,-0.895305611401309,0.986010220764502,-0.0100152294898222,-0.0165146858426887,-0.00792727203066123,-0.0773150314563638,-0.140521033093348,-0.0790414485687614
162,893,6.88514989529391,-0.89539089706951,0.985985866486606,-0.0101414017688007,-0.0152119259046699,-0.00811282873942712,-0.0565983377718208,-0.18860642893704,-0.081570011259251
163,894,6.88508489387661,-0.895471736528867,0.985962938592835,-0.00892564642662727,-0.015083473568855,-0.00763140582236936,-0.0829045667893093,-0.178103281936226,-0.0174733120232304
164,895,6.8850600520516,-0.895550348986596,0.985942905126369,-0.00614396945357894,-0.0143837703532785,-0.00701985973608165,-0.088070797368008,-0.0881429641149825,0.00247113954930241
165,896,6.88507717544976,-0.89563465893214,0.985924057313313,-0.00321811083935135,-0.0150078075879703,-0.00684761138768883,-0.0256381073223309,-0.0604022409852714,-0.0286395815458487
166,897,6.88512832551328,-0.895715244954933,0.985904267482299,-0.00101773674340176,-0.0145003535480301,-0.00697641739426092,-0.0121735313671342,-0.11511819077219,-0.0637019511764575
167,898,6.8852095155162,-0.89581250967775,0.985882471269821,0.00139396016499412,-0.0153881546426941,-0.00703474810607127,0.00912614306534821,-0.15604999586615,-0.0561083584270449
168,899,6.88530596423403,-0.895926601978994,0.985860578159225,0.0035814124988868,-0.0162131200188683,-0.00680104053157757,0.0119909877193528,-0.213231502363677,-0.0313391385354659
169,900,6.88540741707018,-0.896071777738751,0.985839150681384,0.00552879973144909,-0.0183287555100089,-0.00594348625955887,0.0272854798189196,-0.197540719141252,0.031522946170267
170,901,6.88549606708406,-0.896251289612941,0.985819594347844,0.00764327673584711,-0.0201824672786928,-0.00546445421643249,0.0137941607041386,-0.21700606746723,0.0151378422895333
171,902,6.88561965265116,-0.896440525626137,0.985796295371336,0.0093074968877108,-0.022037233237142,-0.00490657209960939,0.00929617011493615,-0.190116512632157,0.027535211391946
172,903,6.88575490887526,-0.896642482820067,0.985770481342163,0.0112429174504139,-0.0243107423948642,-0.00413076290340387,0.0505532509554646,-0.207608592307067,0.0494636249635517
173,904,6.88587829285623,-0.896853106477663,0.985741054698794,0.0116359851463514,-0.0252851184090184,-0.0039254716871198,0.0344016750393863,-0.172229197326631,0.00625903682845442
174,905,6.88598013383489,-0.897061987514539,0.985708863501109,0.0113666838801899,-0.0264298678199639,-0.00375074060066235,0.0484538607250828,-0.150802276560774,0.0106869171096512
175,906,6.88605748319865,-0.897264614429075,0.985677229602606,0.0107738006392372,-0.0267168738554858,-0.00359976019181984,0.0572811270032598,-0.167953468132953,0.0130662109588407
176,907,6.88610320930022,-0.897469665948307,0.985651261982704,0.00945395321239754,-0.0269574341361938,-0.00341324124215777,0.0701419519779612,-0.151135427676654,0.00979349164396111
177,908,6.88612762354154,-0.897675153932415,0.985636383423382,0.00830078731261375,-0.02695525969193,-0.00334741492738839,0.0744894567570914,-0.16077967119393,-0.0089592471099455
178,909,6.8861582150221,-0.897916938332278,0.985640266986297,0.00842627163468116,-0.0274687338786334,-0.00318989429375925,0.0658378781224809,-0.177743412899685,-0.00876563938162277
179,910,6.88619433212681,-0.898231242424685,0.985669176480756,0.00889445191525553,-0.0294282209021171,-0.0027591423228756,0.0525434345283482,-0.155688163979743,-0.0077181217018381
180,911,6.88617380343562,-0.898725302032002,0.985727845504754,0.00836951694142546,-0.0306398012631459,-0.00214111777679228,0.0878572394040208,-0.150289479604596,-0.0291335689443538
181,912,6.8861422323307,-0.899137918388034,0.985810462794039,0.00753538378306399,-0.0335375217578812,-0.00102534682692735,0.0814839061654529,-0.0694909051893103,0.00157127811914782
182,913,6.88604127881086,-0.899575954836533,0.985919750866135,0.00371347000809735,-0.0363271959750479,0.00012466770985587,0.119338398259594,-0.118409686272791,-0.0267438492360354
183,914,6.88583821908449,-0.900017461036948,0.986063448353844,-0.00313626148749309,-0.038765885639143,0.00213214257679792,0.102810327801989,-0.118815795982038,0.00177929890959449
184,915,6.88554361665833,-0.900429412585606,0.986247200091911,-0.00874565928444066,-0.0388478977885441,0.0052283372451068,0.143585458931859,-0.141922507645471,0.0813957001667972
185,916,6.88514439769531,-0.900792897234201,0.986478576567946,-0.0162860665526295,-0.0381440557736058,0.00863518514299732,0.170235848721607,-0.0592229581061262,0.119894303491073
186,917,6.88465568654514,-0.901084395582747,0.986761433961737,-0.0232290516473129,-0.0358616732658252,0.0123177990314958,0.157768321669975,-0.0876744996582345,0.169514328193601
187,918,6.88409665387663,-0.901349766507455,0.987174718581914,-0.0279759258466154,-0.033349080783573,0.0172558239853485,0.199246028364887,-0.0762754879996844,0.229730582309167
188,919,6.88350998479557,-0.901482396917561,0.987718369926097,-0.0312297870880039,-0.0305735024068193,0.0225650077697601,0.192153133154502,-0.0255703582723432,0.231261057211612
189,920,6.88286787928974,-0.901589514506595,0.98832671054881,-0.0349116261649646,-0.0276268735539134,0.0275049533963002,0.126950105021407,-0.0145157935116571,0.213267561395904
190,921,6.88225295330544,-0.901668523417894,0.988993525074455,-0.0375026112298124,-0.026055078116778,0.031995601443443,0.0180538398438929,-0.118731019063466,0.181962048028473
191,922,6.88159644635866,-0.90182393030157,0.989703450887022,-0.0422530340055513,-0.0263682322468581,0.0352074592307087,0.0502329727005194,-0.22198369672005,0.0484704890456174
192,923,6.88089118554087,-0.902068697447654,0.990423624646741,-0.0462591460368489,-0.0279288042187891,0.0377478531755754,0.00922455413267711,-0.234771743521765,0.00592016457813253
193,924,6.8800581261546,-0.902358122267252,0.99118024907253,-0.0506760505732723,-0.0311417921303439,0.038560861251876,0.00636296360899388,-0.183610126626285,-0.0565745138221603
194,925,6.87922204197311,-0.902768903181586,0.991874530073312,-0.0562830086781222,-0.0319030381021469,0.0404992326740394,0.121769068024536,-0.00265170507954005,0.019129518862854
195,926,6.87831903503083,-0.903195248554095,0.992587095066559,-0.0636968458609384,-0.0325994216228043,0.0431772801013173,0.0193626824747428,0.0576828937138613,0.0544990683434674
196,927,6.87736702491378,-0.903628458070346,0.993318846973536,-0.0705358049656013,-0.0337613848211323,0.0468380423531215,0.0436675290011011,0.151535300282259,0.201689141817697
197,928,6.87644438056483,-0.904025356607154,0.994049635040146,-0.0746366041393346,-0.0359022433132053,0.0505188459573718,-0.000904398076395257,0.154199491060459,0.302061753466521
198,929,6.87557180929662,-0.904327414837005,0.994757755179875,-0.0774079669701971,-0.0353765735586603,0.0531891526055997,-0.0626169563989895,0.104616376756313,0.272149165752954
199,930,6.87476741946731,-0.904554031585207,0.995415298541505,-0.0785399892753385,-0.035199083183037,0.0547930938818902,0.0143407018981796,0.100353004555831,0.244332767702687
200,931,6.87403777323026,-0.90470960571545,0.99600757005447,-0.0784015029796863,-0.0318299509723051,0.0545534608851516,0.00898114149599682,0.0618204668560329,0.150667793686102
201,932,6.87337616238734,-0.904793157552025,0.996529661137192,-0.076922403826595,-0.0262592432866693,0.0535799127240506,0.0464734808063255,0.144797156171029,0.148121039634711
202,933,6.87282245753789,-0.904764472267967,0.996985138855307,-0.0722448923368656,-0.0188309481169261,0.0524203029241928,0.139236789385081,0.167993146378755,0.188191406241023
203,934,6.87236508730688,-0.904633052028783,0.997377702236857,-0.0655155825325769,-0.0119329924468802,0.0502636482767212,0.0650909370377678,0.143708565172742,0.143750320303361
204,935,6.87202251152107,-0.904457144196108,0.997689053409275,-0.0566003580357413,-0.00529474024274654,0.0476489619355961,0.0485268294369468,0.22069403099977,0.142862183833523
205,936,6.87175495396115,-0.904248753094611,0.997898814170487,-0.0491273940434479,0.000312055870062175,0.0437568229169243,-0.0087241150985489,0.258603480730727,0.0879319771366636
206,937,6.87159327227711,-0.904003097790748,0.998014077675457,-0.0402486492720892,0.00577494043148845,0.0401874994538992,-0.0356493516003224,0.290209621862422,0.150513276793983
207,938,6.87152368618028,-0.903761371275522,0.998037512426105,-0.032650567844401,0.00974280856766689,0.0343521805371589,-0.121229450742383,0.185577827820245,-0.0346744299642635
208,939,6.87149362108991,-0.903599980891632,0.997955902906147,-0.0272881614219339,0.0121054364885619,0.0279597953424402,-0.147989355490781,0.158234882379534,-0.0870558432525422
209,940,6.8714194196119,-0.903571528554928,0.997773057047953,-0.023241382995159,0.0121379594313416,0.0211082948174111,-0.107745979633707,0.1242585547891,-0.13549589034593
210,941,6.87134469429017,-0.903647483158864,0.997497123786721,-0.0208411149242871,0.010979931112114,0.014843333041705,-0.15518230003284,0.251342935265168,-0.0874247475993537
211,942,6.87125168481716,-0.903828398006889,0.99713708002061,-0.0190910973181234,0.00782850006899811,0.00878555718002684,-0.111399936444561,0.222251937063383,-0.074656404277725
212,943,6.87112169142161,-0.904072509846426,0.996698400267874,-0.019186093977963,0.00461215544546987,0.00313655635219003,-0.123330744245358,0.295017277789505,-0.0551145031381677
213,944,6.87100822827883,-0.90435022937218,0.996190382994968,-0.0179537662133781,7.83570308522698e-05,-0.0020683870681579,-0.0826557576325548,0.27391769103003,-0.0148371847260148
214,945,6.87093254823472,-0.904680566729569,0.993654729413526,-0.0161688617032395,-0.00660203777369851,-0.014949441410972,-0.113634261132894,0.263388698200996,-0.0107842052768551
215,946,6.8709174720135,-0.905165311973209,0.991672925429295,-0.0111867731393135,-0.0149031497010043,-0.0238856952866854,-0.0971664437149501,0.162728751858508,0.0699663907600271
216,947,6.8708936784459,-0.906033519900227,0.990095654525831,-0.00659124970125125,-0.0277653532410451,-0.0305144323203127,0.0616222652229184,0.143952629980076,-0.0305890480682713
217,948,6.87075794078581,-0.907734475600868,0.98881258599019,-0.00314992712183891,-0.0433701042506307,-0.034693442467129,0.284196318952507,0.192800080984492,0.0309927722059962
218,949,6.87048429660106,-0.909400226862516,0.98758819951787,-0.00219862009935018,-0.0642889130817499,-0.0383774351518402,0.329133451725493,0.100006380629854,-0.0899378783109338
219,950,6.87018205156223,-0.91110033766003,0.986391810079663,-0.00253822046012465,-0.0855586513300947,-0.0404636875087566,0.232160777621528,0.185440458952308,0.104745251960386
220,951,6.86985151211483,-0.912669577274814,0.985238155236085,-0.00484297283113562,-0.100238109770922,-0.0444742258696141,0.13155130826417,0.0261297600226812,0.0125177740365558
221,952,6.86949741415894,-0.914010845503785,0.984142821277564,-0.00806468159722122,-0.108120156508959,-0.0483879978245178,0.0642297235936958,-0.107154489298594,-0.0108287274589144
222,953,6.86909024342093,-0.915089886489181,0.983133377314779,-0.0138829350183023,-0.109073623270607,-0.0513053528219521,0.0660627711944996,-0.195327945324473,-0.040293661209934
223,954,6.86865523533502,-0.91591589151151,0.982229163051882,-0.0175007246904051,-0.10507440342304,-0.0528038149783246,0.161567242620481,-0.139614982686126,-0.0524806281703053
224,955,6.86823284478226,-0.916522658940762,0.981430377955794,-0.0188070121927634,-0.0991411220064193,-0.0536257988535882,0.128243918606897,-0.158693378678664,-0.0797878376898079
225,956,6.86785621214786,-0.916963283658714,0.980729132195404,-0.0184568571886867,-0.0919850635636566,-0.0538616154741433,0.104636879593324,-0.0347795813042541,-0.0679752885402987
226,957,6.86751674915078,-0.917271358498966,0.980118672228374,-0.0179064170612063,-0.0843384344911217,-0.0536374133016233,0.118371101299621,-0.00399706524403251,-0.0760629691499741
227,958,6.86720049392285,-0.917469910462022,0.979589694687617,-0.0174070342502527,-0.0756186944806245,-0.0527826442180443,0.0821465713768656,-0.00818806195862471,-0.0727031243086815
228,959,6.86688863167323,-0.917576081974331,0.979133677912057,-0.0165739914659706,-0.0668866055180814,-0.0515104027386835,0.193029953783597,-0.0524827478122472,-0.0886947908459824
229,960,6.86654070798095,-0.917611923681324,0.97873640595393,-0.0170126366841689,-0.0572982792741829,-0.0502653910204247,0.208537639935323,-0.10787112356046,-0.12833015196929
230,961,6.86619801432762,-0.917601143593639,0.978397719362994,-0.0177905359590463,-0.0481637604709598,-0.0481642513914696,0.202510900637796,-0.107649879859889,-0.0931064396937983
231,962,6.86588874215811,-0.917571707909259,0.978150448770377,-0.0169491492343455,-0.0388123599011299,-0.045385453705583,0.205568466483774,-0.0661970798254476,-0.0825245645070372
232,963,6.86567764129884,-0.917488261878662,0.97788539249071,-0.0152962673931965,-0.0307340871956805,-0.0431133047757157,0.188808302311338,0.0236906434391336,-0.0805143059143152
233,964,6.86555105954903,-0.917384491417991,0.977673377772151,-0.011435063983297,-0.0223968773968813,-0.041002899437829,0.199486250859361,0.0136716469742247,-0.111112255937214
234,965,6.86548483315202,-0.917258637221594,0.97757332616669,-0.00863422637723106,-0.0144160649117706,-0.0393703743705792,0.164953375254225,0.0453975795609442,-0.199713368784779
235,966,6.86546345590622,-0.917085646171325,0.97744842345476,-0.00623752667139058,-0.00674578672667338,-0.0375649851417575,0.219857880816601,0.113731841285339,-0.15297759046651
236,967,6.8654732004129,-0.916863492100624,0.97734805924878,-0.00451231366948801,-0.000219075559993359,-0.0357222183248234,0.202932009518308,0.0586056848869152,-0.139797153463903
237,968,6.86549113611441,-0.916657909350013,0.977270684782219,-0.00284344846433146,0.0039535638517496,-0.0328475954827617,0.114887206531616,0.0679412241224231,-0.0283921306723965
238,969,6.86547384200791,-0.916422089373459,0.977402997299895,-0.00270154216699273,0.00886310959575423,-0.0273989942918466,0.0897570871798345,0.0659604077812218,-0.0208678485029614
239,970,6.86536644091865,-0.91679910871936,0.977389493925154,-0.00458121432603306,0.00386187459326698,-0.0242766037130159,0.116405109700566,0.126976560896432,-0.0231810274302842
240,971,6.8651705289049,-0.916701374790826,0.977388256097495,-0.0071994258473595,0.00313610443393525,-0.0209880966034418,0.138751254700243,0.114433990796153,0.00506631142640839
241,972,6.86492656065055,-0.916945466206212,0.977409043575389,-0.0101800821169544,9.54542651609881e-05,-0.017921752470354,0.169475695196666,0.112784892703073,-0.00865865244147833
242,973,6.86464503901023,-0.917139818759848,0.977453728664619,-0.0121164751918346,-0.00261251641820667,-0.0150852383729162,0.207645839129562,0.122200243011321,-0.0127971642752804
243,974,6.86437235462272,-0.917400701674694,0.977518504537206,-0.0127864710288158,-0.00488151271616989,-0.0126188601153514,0.225065989661962,0.121346699099623,-0.0328986351363811
244,975,6.8641194251889,-0.917624752878872,0.977593266839784,-0.0118303175900084,-0.00616415713363769,-0.00982036344940128,0.212091784847258,0.176817838672071,0.00981198809198233
245,976,6.86390265826415,-0.917818824596282,0.977668361894799,-0.0106570357725648,-0.0071326035787856,-0.00774377620329237,0.21894097962963,0.18308935578587,-0.0110628450302586
246,977,6.86374038927259,-0.917940441024483,0.977739266887462,-0.00849329935914996,-0.00575023130055396,-0.00662307386541558,0.202936189470658,0.118873504145041,-0.0735441304266139
247,978,6.86363080132351,-0.918000105386195,0.977801956372483,-0.00662499904375928,-0.00454030546641617,-0.00596978136642796,0.206732444898906,0.0885233287063554,-0.0989497696957928
248,979,6.86356790318816,-0.917987785221507,0.977859268389543,-0.00449986624242544,-0.00206485407849436,-0.00549368019036185,0.187658181853001,-0.0244326662862195,-0.100325016256991
249,980,6.86351432812024,-0.917936679131542,0.977923813664287,-0.00310676954101762,-0.000867740175434121,-0.0055010268040267,0.151791082085834,-0.0574797617193276,-0.151100666722697
250,981,6.86353774068036,-0.917883611925076,0.977997806523478,-0.00205210676873468,-0.000547553274261404,-0.00530400012191231,0.0321516402754109,-0.117564294166009,-0.153354870203035
251,982,6.8636239357341,-0.917817565349853,0.978084070141182,0.000582940991888185,0.000102848827690917,-0.00405876481576149,-0.0456079952906994,-0.16086621236068,-0.0752920458817951
252,983,6.86378347050991,-0.917732116235326,0.978185357694249,0.00387885385238928,0.00150443644853501,-0.00181512016673785,-0.0461868113376475,-0.145057239869741,0.0131221990159797
253,984,6.86402747109097,-0.917603862304849,0.97829842990634,0.00986302665447182,0.00353285718414984,0.00121267534018792,-0.0452734999333766,-0.114041886872325,0.101906771754272
254,985,6.86435179018729,-0.917422284379891,0.978417025696902,0.0165981988187202,0.00658149097380269,0.00425366414432497,-0.0627694911901064,-0.0812004301963231,0.130305695853996
255,986,6.8647181943292,-0.917176763172002,0.978526495446435,0.0222874692340534,0.0113912587856834,0.00636432685194452,-0.00287249161430837,-0.0427068440756591,0.0889269914378679
256,987,6.86510223065408,-0.916879640346453,0.978614569395062,0.0263893909379403,0.0150419714552394,0.00777242182985525,0.045493943263678,0.0299728851584515,0.0716436183158104
257,988,6.86548701687966,-0.916516108554326,0.978675582189142,0.0281276786367847,0.0198780529564613,0.00778884681289803,0.0524912788015989,-0.00707946276934566,-0.0121680098470365
258,989,6.86586751647205,-0.916107937823351,0.978708953559932,0.0295946885121292,0.0236969366998659,0.00766474102655571,0.0556604649179854,-0.0450188080297658,-0.0110013734118933
259,990,6.86622927251558,-0.915706436581294,0.978719981448447,0.0299016529085232,0.0255900223180871,0.0076787158159006,0.0280512373114701,-0.021308157664357,0.0228544799314888
260,991,6.86655652518844,-0.915344950733703,0.978714805286923,0.0297561312642413,0.0265882733932724,0.00719341761823219,0.0164719118180283,-0.0129057946157423,0.00229189946934032
261,992,6.86685545681219,-0.915069965006005,0.978698043873344,0.0298421217167548,0.0253324478184715,0.00682399628719228,-0.026172402369573,0.0402695533440894,0.0244183910810241
262,993,6.86711071762365,-0.914905543808585,0.978672723171348,0.0291510968788828,0.0224809285899318,0.00614989296553567,-0.0259561473356625,0.0420130787329512,0.0161434137060661
263,994,6.86731591410008,-0.914871942479904,0.978646311983904,0.0276790906428912,0.0179535337629842,0.00543175712390117,0.00711640223747344,0.101344517700255,0.00632216686205213
264,995,6.86750251598455,-0.914934047141116,0.97861929644989,0.026318088750734,0.0140891017906491,0.00424204303807449,0.0137526065009788,0.0415620007455154,-0.0562473775088946
265,996,6.86766501114378,-0.915090491342443,0.978589881965523,0.0241805907049133,0.0101930115435009,0.00393018622157718,0.0671959543975666,0.133288273532358,0.00388781595266062
266,997,6.86781701095738,-0.915304621464317,0.978560553594805,0.0218577729679429,0.00712477140145514,0.00369541421319057,0.0805915254866044,0.174799735280231,0.0130147415360882
267,998,6.86797621640373,-0.9155585982348,0.978530460951192,0.020986192040167,0.00391292215922544,0.00375039355332791,0.090923842902653,0.193556796503878,0.0498788668223139
268,999,6.86816230529335,-0.915853437195673,0.978497941515166,0.0221841772208739,-0.000119423731365735,0.0036651438028658,0.0967958612672558,0.253244163847612,0.0502273323439405
269,1000,6.86834485988043,-0.916173198782699,0.978460791078338,0.023613185634289,-0.00537836660055786,0.00305024908130068,0.104687172975631,0.212292840671412,0.00722492311714795
270,1001,6.8686048618465,-0.916532881439518,0.97841375223606,0.0258687377540351,-0.010655104997601,0.00188747893526304,0.104288423495733,0.23894743391027,-0.0323978475743085
271,1002,6.86892081866669,-0.916932217563789,0.978355956773555,0.0278638536444314,-0.0165422953013254,0.00101386615602609,0.07281535431981,0.176486717963592,-0.0113988791295
272,1003,6.86930900278709,-0.917389767858171,0.978288354046105,0.0310751271891958,-0.0221390640694137,0.000229800630786537,0.0562505914170593,0.0892361994838103,0.00431824165630807
273,1004,6.86976410863851,-0.91791229202371,0.978213270018695,0.0341815022246432,-0.0272876265906855,-0.00018293040979812,0.077071376302853,0.115925347545018,0.0411055780006877
274,1005,6.87029074734542,-0.918495164670201,0.978133948721876,0.0384557419320077,-0.0317237970161849,0.000142993452980777,0.0660108939628802,0.0455729982734808,0.109068921999504
275,1006,6.87087082700163,-0.919151811711562,0.978054258795525,0.0429778359335029,-0.0371282014147927,0.000659634313579608,0.11106481590862,-0.000715831139951733,0.14129130676174
276,1007,6.87150197081947,-0.91989846241552,0.977978700553834,0.0485242735691547,-0.0435105647385463,0.00127776958096562,0.0911903019509821,0.0436697273851869,0.158043948666073
277,1008,6.87214688902896,-0.920741987567846,0.977913216897909,0.0531338470799098,-0.0502715194305869,0.00169717193202597,0.121443941899173,-0.0114560540416056,0.125060173022007
278,1009,6.87277263884164,-0.921669809198118,0.977865291250405,0.0562954161794466,-0.0576346547999719,0.00272399961679693,0.132948273792885,-0.0276557390311874,0.147002506956557
279,1010,6.87335678829773,-0.922629285672283,0.977844977456498,0.058070758010806,-0.0630939320545329,0.00455393240515847,0.0969617261983786,-0.0540436060250605,0.196791629796971
280,1011,6.87388535272775,-0.923604903108434,0.977859086768373,0.058394222757584,-0.0680987432088232,0.00588709788512139,0.134512839000508,-0.0367047587047515,0.148160467667523
281,1012,6.87433681325725,-0.924583259572627,0.977905160494644,0.0568203393049326,-0.0730729190081995,0.00727763926294005,0.0684742732691921,0.00564692674329794,0.121451459185752
282,1013,6.87472445931647,-0.925582693405426,0.977978765718325,0.0546625897456418,-0.0783510382126885,0.00834091265502123,0.112068554659866,0.00395583064934775,0.0547129402670135
283,1014,6.8750565186069,-0.926596588581991,0.978065967929784,0.0513340931993329,-0.0824129914393366,0.00865353673036454,0.114729060018802,-0.0399027516103935,-0.0363023660754782
284,1015,6.87534112467107,-0.927636385042492,0.978149878627296,0.0464780738644159,-0.0863258281347575,0.00846996010682457,0.130095873113813,-0.0497690635228196,-0.0874558565616505
285,1016,6.87560633544038,-0.928731231347642,0.978218940398191,0.0424609311215067,-0.0914304858685337,0.00837868534215615,0.0431376826228358,-0.0553855941697712,-0.0809574817677897
286,1017,6.87586622359944,-0.929911019010646,0.978266510581326,0.0394115657994082,-0.0979881851509829,0.0081294238056234,0.0106245234513512,-0.00239941135606604,-0.0682916907332774
287,1018,6.87614443860059,-0.931176959449756,0.978295844037172,0.0375112207868436,-0.104659359893843,0.00761539492755703,0.060020535242462,-0.0332333071620658,-0.0826921347090856
288,1019,6.87643754689089,-0.932551828241327,0.978313906218794,0.0361705284645743,-0.111543134941777,0.00689664406944616,0.0910162771330873,0.0286453292613145,-0.105793657429874
289,1020,6.87671585235756,-0.934010744214727,0.978331519376374,0.03518893461387,-0.117769975487405,0.00642856292494291,0.110372801477309,0.00875229043382949,-0.0999841609945909
290,1021,6.87704353274898,-0.93553737021138,0.978352722328197,0.0351613673607159,-0.124278060139596,0.00631255408078288,0.118189540282683,0.0290528100587989,-0.0750417559527724
291,1022,6.87740329277927,-0.937109761619892,0.978373682718407,0.0371172148684633,-0.129919561533849,0.00576271732366094,0.0562358449659016,0.0925580173880765,-0.113086582591262
292,1023,6.87777460013655,-0.938704661749631,0.97838613620018,0.0385875597502807,-0.134449361598119,0.00484475760873557,0.0253472207436054,0.0489039754970573,-0.159630213986152
293,1024,6.87813720365886,-0.940305572001431,0.978389106719705,0.0402497870969642,-0.137626165204272,0.00437553403965388,0.0249423388126862,0.0779011204060509,-0.138895396844986
294,1025,6.87847295250097,-0.941918022223519,0.978385479825542,0.0400061417534389,-0.141163478164937,0.00409092208100011,0.0802642676785897,0.153517175919313,-0.122453898445363
295,1026,6.87877572908295,-0.94356455094831,0.978387063594671,0.0410912120241846,-0.144923657382532,0.00438497614512614,0.0346103712504923,0.13422284646486,-0.0490904954964246
296,1027,6.87902921246321,-0.945231179859853,0.978386794725245,0.0405779075663084,-0.148549127663934,0.00433073377870809,0.0351798124473202,0.139439760158142,-0.0728910589449686
297,1028,6.87922863866456,-0.94688697908911,0.978378302222159,0.039421759967011,-0.150719836300304,0.00454081483883719,0.0760592307721314,0.174139540476178,-0.0494142932908199
298,1029,6.87937146455658,-0.948480516852416,0.978359142620584,0.0366361883984588,-0.151678037325114,0.0049197876269742,0.118650667797311,0.145929025255443,-0.0361572106192148
299,1030,6.87946440602522,-0.949983642624703,0.97832713996908,0.0336830571324392,-0.151482413400134,0.00526834469292289,0.123414622834606,0.126787499808966,-0.0358222852630668
300,1031,6.8795242742747,-0.951429406591819,0.978282781687396,0.0306632131371471,-0.151155229665051,0.00564321504553904,0.00972254968562763,0.0794879130469042,0.000831815525287338
301,1032,6.87954845664307,-0.952852600117617,0.978225648293724,0.0263128620495639,-0.150928659788454,0.00520181008952154,-0.049294569316022,0.0278935452306533,-0.0594737395979086
302,1033,6.87954864394651,-0.954265869888202,0.978157291193532,0.0222259210528673,-0.149592741136262,0.00453361175947134,-0.033054470568249,0.0642852241599044,-0.0826094891134372
303,1034,6.87952697795908,-0.955516074101214,0.978074584103334,0.0168729007785028,-0.144919623154127,0.0033159485309856,-0.00479110300684182,0.0398211646416934,-0.138731921916348
304,1035,6.87950056505325,-0.956117911696299,0.977986423553491,0.0128413581190982,-0.126922159504149,0.00297276452176198,0.00668514961721824,0.0309458657055689,-0.00739241326549043
305,1036,6.87941819531482,-0.954391654080404,0.977887393044312,0.0111155428351357,-0.0705206543621169,0.00252184093619938,-0.00845632781386408,0.0841594641812338,-0.0171212595634185
306,1037,6.87924378560428,-0.949410581820871,0.977689728018069,0.00953273023185301,0.0294709911505871,-0.00054738855309179,0.00351644070767588,0.0444385259487731,-0.186881485726727
307,1038,6.87902313569209,-0.942234590956258,0.977357701186486,0.00546328007462576,0.147990819146275,-0.0044989937794654,-0.0375653445753744,0.0833196403057004,-0.141285851008795
308,1039,6.87884604629239,-0.93443267317547,0.976947837962139,0.00326873819135746,0.256573754672481,-0.00792755614258094,-0.0172701325513384,0.095564109176017,-0.0318719403439409
309,1040,6.87873741028053,-0.92707471504161,0.976503359970357,0.00258802103454822,0.33868857894717,-0.0113794370254886,0.0188669987064331,0.115589986538629,-0.0131752641186228
310,1041,6.87864710489914,-0.920662038236734,0.976046921946408,0.000992843943791742,0.394033506979775,-0.0149824646701066,0.0606093688604792,0.0705501842753747,-0.0547757760751
311,1042,6.87866964399597,-0.915400572081358,0.97558813133415,0.00256557110572047,0.420243754395672,-0.0181409416585786,0.054820112763004,0.117695825610382,-0.0455108401250358
312,1043,6.8787846268463,-0.911275655831947,0.975136686380773,0.00471657825562812,0.42520137313446,-0.0209038787045769,0.0445784721557892,0.17314194757322,-0.02876952705037
313,1044,6.87896199853281,-0.908150743921078,0.97469689964236,0.00683914511216591,0.415066343669369,-0.0235695985711995,0.0691953427138073,0.215969744125077,-0.0403166489458943
314,1045,6.87917874659056,-0.905879895692359,0.97427115307956,0.00909945387094441,0.392516371476229,-0.0254835294595377,0.102422750652387,0.242107069341318,0.00871656767014319
315,1046,6.87946368143966,-0.904316924387453,0.973865813126799,0.0137190441907688,0.360919656193119,-0.026290011413014,0.0765092266889839,0.318963836563579,0.101326559841764
316,1047,6.87983973276442,-0.903287419911176,0.973526987709845,0.0226424726763088,0.327424697072512,-0.0197867117235699,0.309526589530007,0.5778119845652,0.753444351558674
317,1048,6.88024879939009,-0.902677714741141,0.973269360306148,0.032126600631649,0.288665330064619,-0.0205253040287996,0.47746450782641,0.235308889764455,-0.0581390329708086
318,1049,6.88062276631986,-0.902420860087689,0.973023209242842,0.0309145764165256,0.24390294038893,-0.0223520009902136,-0.279393234788258,-0.319321273168475,-0.10340836191468
319,1050,6.88087828169012,-0.902535527815275,0.972758884850411,0.027480291696519,0.204613913321941,-0.0189535776324089,-0.0524795991826341,0.201158241077598,0.422000166115141
320,1051,6.88105793544594,-0.902843813966609,0.972558307071203,0.0253987447283913,0.170902932559961,-0.0126926261440602,0.329482816470275,0.526228643835494,0.567231496494075
321,1052,6.88118072243936,-0.903207146406069,0.972449020150292,0.0222552863320165,0.139714483542409,-0.0088736894958207,0.21677129495692,-0.0906498149626331,0.215463299553224
322,1053,6.88125841792509,-0.903625288794977,0.972373347052386,0.0209215908249323,0.112753257104894,-0.00863698210984316,0.198438653671778,-0.120973710381113,-0.135230283673416
323,1054,6.88133697678233,-0.904045498883917,0.972274408523194,0.0179209130900069,0.088647774946737,-0.00880185366620125,-0.140515894173471,-0.147781261727732,-0.0678876693429625
324,1055,6.88141287251988,-0.904426439538665,0.9721411812543,0.0136304099850656,0.0718865498717452,-0.00775050388376632,-0.193521756419256,0.11870485913203,0.1932557745013
325,1056,6.88148874051318,-0.904678965074419,0.972020035410601,0.0116033010862988,0.064451494277706,-0.00434199278457088,0.111296588796007,0.50571290380428,0.429864189660331
326,1057,6.8815849763305,-0.904774454178673,0.971948252465143,0.0113110074799013,0.0568683483113393,-0.00287657809853037,0.0567692854061191,0.297546668990303,0.154966330220206
327,1058,6.88167466029428,-0.904740704223277,0.971888814620508,0.0104020909223968,0.051834369547148,-0.0041271728413237,0.167695282701693,0.230405124856015,-0.117380189884513
328,1059,6.88176986480362,-0.904588453661461,0.971806279639953,0.00859155476315892,0.0485227583593176,-0.00416631254579028,0.0496325904932865,0.161632400943653,0.0306763870474343
329,1060,6.88182444899756,-0.904361318713471,0.971719510802912,0.00838308378394318,0.0474956604832108,-0.00284781364953719,0.115413155120553,0.337609025520296,0.17489603931299
330,1061,6.88190878043123,-0.904031848734999,0.971649242295094,0.00870154594340794,0.047243482488845,-0.00174153964172685,0.0874390568914393,0.264507900034474,0.118615438302692
331,1062,6.88199215978744,-0.903596504503674,0.971589292051062,0.00963976604202884,0.0488337084208369,-0.00194076231482007,-0.01673214083015,0.0869187803617996,-0.0166485719822247
332,1063,6.88207295803296,-0.90306970768403,0.971517635493497,0.010606512866536,0.0524797597554542,-0.00224022635701814,-0.0397360223936202,0.102021736278677,0.00793063153188865
333,1064,6.88215864294716,-0.902413780044333,0.971433510681275,0.011595851519509,0.059841032964324,-0.00209231678840753,0.11458138294483,0.297136726935175,0.0548207246173597
334,1065,6.88217174166052,-0.901710973637661,0.972231625722899,0.0128650662317335,0.0645061443776876,0.00579710255863569,0.314353184956866,0.295467831988021,0.380192891848405
335,1066,6.88218297859123,-0.900746051831208,0.972798012285627,0.0112170629037595,0.0745783756660687,0.0139201837354908,0.39088559896386,0.32856597617563,0.538123528473487
336,1067,6.88216717885988,-0.899594786244863,0.97346595227511,0.00692155255550047,0.0861863530844975,0.0235181998819788,0.308654009476756,0.245696631744501,0.635633769657792
337,1068,6.8817666466346,-0.898538619395541,0.974307204413455,-0.000561158261408701,0.0936301895377982,0.0325647915926671,0.0900546357864186,-0.00176782100578714,0.577183992854523
338,1069,6.88167543868206,-0.897222625086456,0.975036624971149,-0.00541185670267303,0.0999656872568634,0.0371269747496164,-0.245279258953511,-0.238148729029779,0.327885987737838
339,1070,6.88156190689024,-0.896084418813984,0.975457187996854,-0.00762114726645847,0.0998308789086755,0.0384553869752423,-0.337337993780094,-0.103503741275075,0.223603703107846
340,1071,6.88151250995845,-0.895116834305865,0.975942663264274,-0.00564481528828345,0.0956324306088166,0.0388203892374337,-0.340646798390138,0.0322690327959821,0.155768792660196
341,1072,6.88153189409539,-0.894256177429393,0.976268270368822,-0.00182102498758472,0.0923015404935317,0.0361008691443208,-0.166272496207614,0.132760986320209,-0.0183887415488566
342,1073,6.88159090231054,-0.893456477709532,0.976605657072358,0.00451432691714433,0.0916378885913579,0.0327726031648328,0.0616533380600614,0.190390858170601,-0.0837760250347243
343,1074,6.88167506054837,-0.892586715893073,0.976867594192638,0.0122772677298779,0.0947842457335007,0.0286960083712855,0.31522221442787,0.203655679628995,-0.125437475199771
344,1075,6.88180368819325,-0.891587229117273,0.977048931505941,0.0218660416934367,0.0987664853245463,0.0247164195902079,0.617988428573974,0.384536972292966,-0.11046040909004
345,1076,6.88200023314355,-0.890448311836849,0.977280292699411,0.0286961118173568,0.104200378691912,0.0206107036155014,0.614318071319018,0.519370184838578,-0.150057431989281
346,1077,6.88230081115278,-0.889105177237835,0.977475851079646,0.0309437958508617,0.110320369779811,0.0146248847764073,0.596090293220419,0.434375407664033,-0.34162525284344
347,1078,6.88266596003966,-0.887666590521164,0.97765069143045,0.0297935151922764,0.114002186544719,0.00853979756190282,0.520236401998494,0.0924303511624012,-0.450884053154292
348,1079,6.88303010621287,-0.886252932362533,0.97778480663451,0.025374348112776,0.114308670095386,0.00254380862862766,0.220395328208313,-0.210658029391362,-0.460692811653248
349,1080,6.88336958932689,-0.884847934596399,0.977887173265102,0.0217857455712828,0.11276502006013,-0.001400523980939,-0.0461695663262698,-0.394885257681124,-0.317875826241058
350,1081,6.88351252977903,-0.883664817400925,0.977962808921493,0.016002905471209,0.108105157147668,-0.00459516746977202,-0.102892121439661,-0.347774109834181,-0.248404343278945
351,1082,6.88355764733712,-0.882591616911432,0.97800888173092,0.0093145012873853,0.105079481344389,-0.00800969913838884,-0.0984726599931033,-0.225921649360204,-0.263483161060172
352,1083,6.88349708918354,-0.881639833385241,0.978024836337,0.00464620934788598,0.10108521282481,-0.0110835385493313,-0.0759298243986357,-0.0960636437402865,-0.2301483609147
353,1084,6.88336664049674,-0.880788970484998,0.978041584153309,0.000750119314215595,0.0971120891760197,-0.0133039985428421,-0.0066148480468694,0.0456514614961953,-0.210234972875995
354,1085,6.8831793347427,-0.879979801220923,0.978059075719396,-0.00243879279979604,0.0957411960678003,-0.016362466680821,0.135756650537579,0.100025982638281,-0.269555665940957
355,1086,6.88304883661101,-0.878953949669204,0.97808104204082,-0.0041576015461063,0.0993040555406625,-0.0183802330880119,0.321832715590487,0.058218367293767,-0.202966884363101
356,1087,6.88298375594993,-0.877864613847661,0.978119700999685,-0.00158239613374056,0.101858101094468,-0.0180730430468628,0.34890830507126,-0.10932019557481,-0.028575116345588
357,1088,6.88306574043142,-0.876605963243056,0.978209987438846,0.0049384161256312,0.104293485160077,-0.0140762087493498,0.233309627154707,-0.207197331693187,0.236715734664054
358,1089,6.88325892711118,-0.875232521757951,0.978394348863685,0.0127557715030879,0.106099328559408,-0.00602416308241065,0.162195012604385,-0.329459630740812,0.558943934123213
359,1090,6.88356017594853,-0.873752223043045,0.978674702545503,0.021979797922503,0.108941432495054,0.00365488385575399,0.0223720532277597,-0.273024771895216,0.71130065355944
360,1091,6.88386776907027,-0.872219886455077,0.979025431463429,0.0290662907120189,0.114275321465488,0.0118072040586748,0.141214117888057,-0.224920337644046,0.590230624874741
361,1092,6.88419135072071,-0.870703292543262,0.97940591212718,0.0335679487925287,0.119900484266513,0.0174014753427996,0.207148307160938,-0.272006540275732,0.392268728727573
362,1093,6.88454765454591,-0.869168896068605,0.979801436868158,0.0376632309386096,0.122418610263677,0.0214573533951554,0.169965329421061,-0.335749430519265,0.239100778422503
363,1094,6.88496471285508,-0.867767041677021,0.980216697311707,0.0410062814786691,0.122135670137708,0.0242535609221886,0.14235527884254,-0.31955083950925,0.0658336970625104
364,1095,6.8854667089661,-0.866264083379109,0.980630756704498,0.0431415440252631,0.123287212369819,0.0247671818508097,0.0799264216399018,-0.419476170589749,-0.128913700448504
365,1096,6.88599402199606,-0.864772320884803,0.981027255641453,0.0425210630618198,0.125837708956017,0.0237808188078781,0.0102992056354301,-0.465538531535489,-0.253918351114668
366,1097,6.88651753336909,-0.863203367120586,0.98137895783228,0.0410439292586605,0.127944039308659,0.0216720336510069,-0.0978398923391291,-0.573644928047352,-0.322367397596042
367,1098,6.88694184905856,-0.861766432593019,0.981704809987079,0.0385773790521211,0.128574096178727,0.0192790672590937,-0.123619448872871,-0.503519449312335,-0.378380625193136
368,1099,6.88721047689122,-0.860696041935466,0.982013186775891,0.0322422665509261,0.12055232306873,0.0168500939236755,-0.163847768391752,-0.439860554134867,-0.423711351833148
369,1100,6.88716902609808,-0.860667345164799,0.982288692329872,0.0222405186177934,0.0934534090212131,0.0151912985296476,-0.248433019718887,-0.440599839427552,-0.367060282225572
370,1101,6.88687058725493,-0.862013347436695,0.982509170617623,0.00964021089478693,0.0488012878605065,0.0149150504213106,-0.388984148147277,-0.320747401344034,-0.174713403322131
371,1102,6.88638070046991,-0.864238280059577,0.982678647132367,-0.00352256938481169,-0.000770465167102176,0.0149557527163126,-0.388216697379808,-0.208000590508893,-0.064071225173579
372,1103,6.88585154957375,-0.866697110322819,0.98279950109503,-0.0146258792625754,-0.0460754248883054,0.0141401471737819,-0.393386648090991,-0.248841615832715,-0.0606906061856713
373,1104,6.88539315650982,-0.868982019842714,0.982884641006168,-0.0209428370960091,-0.081266171145685,0.0141755124475603,-0.435518812893075,-0.216720311208727,0.0596770269788469
374,1105,6.88506435236707,-0.870928116806972,0.982960104292676,-0.0225882905818021,-0.108121522193265,0.015646501912234,-0.485205068266779,-0.129246458713864,0.182044500381125
375,1106,6.88487266037815,-0.872435258845191,0.983035945011686,-0.0224234747550962,-0.122073844477679,0.0167838470032706,-0.425620152076975,-0.16843045984049,0.142470023295086
376,1107,6.88479962582669,-0.873475206244493,0.983094808534398,-0.0232850731761592,-0.124620184374105,0.0137151262401081,-0.392390042324782,-0.485699655020445,-0.242851625524724
377,1108,6.88481961459554,-0.874134423129643,0.983120559259755,-0.0235666646410242,-0.120071279778019,0.0112515062441776,-0.324856945427606,-0.482027074822137,-0.16229187035602
378,1109,6.88490616000406,-0.874463956187158,0.983129101725661,-0.0222175734827666,-0.109284922348701,0.0100777975599288,-0.34331219654724,-0.327961947560323,-0.0133102015693539
379,1110,6.8850615445635,-0.874553844723637,0.983144808160857,-0.0158771006507667,-0.0982335916098959,0.0112201209404283,-0.311998980797384,-0.152446307545966,0.158603245602265
380,1111,6.88526537212908,-0.874494123555085,0.983184483797425,-0.00802712686784832,-0.0880309166894034,0.0132463016142573,-0.280581084487348,-0.0843389035719208,0.209520343385643
381,1112,6.88548340211881,-0.874341972380524,0.983250422355796,-0.000141959169217088,-0.0767865944448891,0.0149528602928337,-0.21389034079017,-0.0617347505038448,0.17196262453515
382,1113,6.88570653473478,-0.874111588533336,0.98332887521764,0.00592301782369352,-0.0640029152982512,0.0155379149102646,-0.0538929556199067,-0.090401027622844,0.0962553214046957
383,1114,6.88591425173799,-0.873806794620251,0.983405630924231,0.00830015424749223,-0.0510726034098446,0.0147373456929544,0.0674606111661708,-0.169517645048874,-0.00968825016491906
384,1115,6.8860401135418,-0.873511502618608,0.983157015886459,0.00839295478857396,-0.0401936664965262,0.00885903506616271,-0.0480800684654057,-0.22569148770676,-0.049877676603731
385,1116,6.88716245303084,-0.873546671732782,0.983088916385296,0.0203608656724509,-0.0355563824504183,0.00613006076735181,-0.108224107277689,-0.21721059960438,-0.0377032893463583
386,1117,6.8876187877158,-0.873443502654409,0.982966610787938,0.0272410901541999,-0.0305434707825611,0.00370853120484905,-0.187179082382653,-0.221123815265633,0.0150412643969198
387,1118,6.8886285863904,-0.873458292781641,0.982785702721289,0.0381667462389325,-0.0269498777489128,0.000388853421958016,-0.210530524249037,-0.158956380983552,-0.019700475853599
388,1119,6.88969869222563,-0.873440973798696,0.98291863372034,0.0499831150558087,-0.0224644502894118,0.0019256933703089,-0.217898711149762,-0.0920477465553097,-0.0030920553663653
389,1120,6.89098983730037,-0.873403206533389,0.983009409874352,0.0642877481309786,-0.018300276633911,0.00252822420162063,-0.237418118719066,-0.0826731552326179,-0.0653184403752935
390,1121,6.89247195299408,-0.873253979580432,0.983067332854713,0.0769597309342872,-0.0122231892573251,0.00027457728490906,-0.148466669567778,-0.196770985129109,-0.240959221801358
391,1122,6.89416495516656,-0.873060653574583,0.983054212105914,0.0922414700056906,-0.0091721833302097,-0.00360935672292114,-0.189160975950399,-0.350463728135716,-0.328690323961954
392,1123,6.89600501581026,-0.872852719443474,0.982966583051074,0.107061078230253,-0.00813462002623755,-0.00893899763354515,-0.241076020200832,-0.426784394337388,-0.394154797260738
393,1124,6.89791119153972,-0.87264915818413,0.982826914643784,0.12075824655429,-0.00768838825743548,-0.014671767084902,-0.203285483182997,-0.43444951980196,-0.415268470270964
394,1125,6.89969816337175,-0.87248480889235,0.982845786165267,0.129057880402241,-0.0083567361276138,-0.0180816944570124,-0.0862131602410431,-0.501993224775966,-0.465389891787706
395,1126,6.90152523553683,-0.872310750868498,0.982825077970829,0.13695963240816,-0.00823442933328135,-0.0208823307049662,-0.0791945265478877,-0.445931387175681,-0.441232624272183
396,1127,6.90309253199982,-0.872255012294913,0.982782996245387,0.140137174223347,-0.0112998730267368,-0.023109334279945,-0.0245881902979444,-0.44489219523281,-0.40848906611624
397,1128,6.9046156672863,-0.872245966435782,0.982735260380387,0.14244704938595,-0.0153209004982829,-0.0249530303098999,0.00645921607092168,-0.40432708358677,-0.399676408513444
398,1129,6.90586781317307,-0.872389068476463,0.982692701703117,0.140462686982165,-0.0204313654331248,-0.026420575501911,0.0265520347591672,-0.411431887446921,-0.400351695828926
399,1130,6.90698697655385,-0.872647866046562,0.982659147262253,0.135745626117298,-0.026714784714139,-0.026816685578637,0.155246897332391,-0.339591748052042,-0.350697937646158
400,1131,6.90793270708127,-0.873010935309083,0.982654555526181,0.12912302049084,-0.0317272670076122,-0.0259142361876555,0.193957969059275,-0.400006714013172,-0.285911519730115
401,1132,6.90870213729455,-0.873447905723021,0.982698169458766,0.120287179084283,-0.0372081775218961,-0.0241060269603553,0.220904152120424,-0.403212547292088,-0.266662382239579
402,1133,6.90925919601828,-0.873943898430659,0.982794520205614,0.108452759761535,-0.0420776995214864,-0.0217535900551341,0.286624916063108,-0.440611206852461,-0.290477886118649
403,1134,6.90961210426623,-0.874487662139027,0.982937373449008,0.0956945316195366,-0.0470041638458726,-0.0185089340718652,0.264362078284797,-0.468573352398966,-0.281188249105202
404,1135,6.9098091668076,-0.875103502607336,0.983124385031146,0.0826323266687068,-0.0538625877918984,-0.0136841206327503,0.0864321228089171,-0.473368541018723,-0.194918897031491
405,1136,6.90978417728009,-0.875814026552437,0.983332002767384,0.0687149072903034,-0.0602467671155125,-0.00889152402543255,0.056859811624078,-0.403941555380938,-0.140811198128666
406,1137,6.90939397428102,-0.876641310285919,0.983524240515327,0.0496246809561404,-0.0662545860521082,-0.00483439214982364,0.00126427639084882,-0.416876133302749,-0.144305518373813
407,1138,6.90837986925147,-0.877644042457577,0.983791218586009,0.0233260899902463,-0.0732249196141239,0.000829504261244469,0.106867294993694,-0.306654252372887,-0.158472503649978
408,1139,6.90814269957811,-0.878501777121087,0.984004084967518,0.0118857259672092,-0.0769173924985103,0.00557786651114041,0.0595289855931095,-0.227996805375597,-0.115340274561248
409,1140,6.9070028820441,-0.879524592182936,0.984209127281924,-0.00936486885364406,-0.082025786999776,0.0102969106504507,0.082044444675484,-0.10725691363985,-0.0633462704521324
410,1141,6.90614227509973,-0.880530168884181,0.984426061724889,-0.0238433971740164,-0.086068040068388,0.0155884128674601,0.0710876667413789,0.0253806468419277,-0.00754186089197635
411,1142,6.90506739031199,-0.881626943230031,0.984631382108069,-0.0393896445703188,-0.0911007629151037,0.0201052806831497,-0.0788069892387912,0.0498268804648616,0.00544992521391014
412,1143,6.90375450457691,-0.882808412921022,0.984770279993663,-0.0568181104224577,-0.0981351134336972,0.0231534987946036,-0.0433412221847776,-0.101857676813145,0.00460012172656964
413,1144,6.9019707556004,-0.884128962114449,0.984737000767616,-0.0801791247762818,-0.106954435437687,0.0226904294227104,-0.176457442584337,-0.199043880307327,-0.0445362561993842
414,1145,6.89969417173661,-0.88554214852843,0.984457266649598,-0.111344473805846,-0.114427423388905,0.0181350597599241,-0.43318960281171,-0.21271509156977,-0.0849321552423978
415,1146,6.89728678452137,-0.886886599675676,0.984039651452514,-0.13901224810862,-0.116779898975964,0.01461227423583,-0.387406703546613,-0.149692554066505,0.151889136376852
416,1147,6.89508401923516,-0.888098931226419,0.983666885960428,-0.157694563915393,-0.119177033641495,0.0136123376086652,-0.270205426573813,-0.626074072007262,0.296298113876409
417,1148,6.89329598055105,-0.889115937920349,0.983170341099532,-0.165808096123239,-0.11714738665125,-0.00726885396782725,-0.125746085982026,-0.93987615671025,-1.5528025027922
418,1149,6.89203221053185,-0.890160938583833,0.982479424593087,-0.163789032894665,-0.115824203758153,-0.00734243081472871,-0.334030845800067,-0.201076134319886,0.728147693849474
419,1150,6.8912158159108,-0.891120685330655,0.981871210682065,-0.149202802314677,-0.110860436405423,-0.00458397286494583,0.332411765787981,-0.188226315304767,0.924460726719712
420,1151,6.8908305478077,-0.89184112784566,0.981331284679082,-0.130138570384099,-0.105684733557608,-0.00136417980386816,0.249273933746202,-0.73915012831743,0.779849987595488
421,1152,6.89066332649049,-0.892184427915723,0.980907837046185,-0.11235128082813,-0.0924948637308929,0.0131123032283711,0.157743628946679,-1.31576000310766,1.77337536496636
422,1153,6.89086925988045,-0.892239858058988,0.980740932823609,-0.0781417753394757,-0.0900952486047859,0.0512358975750137,0.17489935272865,-1.2402113484479,4.28000615641892
423,1154,6.89166383463112,-0.892180811625515,0.980928292411093,-0.0195352191319834,-0.0889812249916486,0.0952433654593567,-0.0168902957304632,0.795139573927054,4.85230270413836
424,1155,6.89316287842839,-0.891814236683138,0.981386081361776,0.0412503897525423,-0.0726639767797385,0.123849589886438,0.0908890864258783,1.30069872724523,3.34547138234883
425,1156,6.89509552474433,-0.891269634606709,0.981939542698205,0.0835404343491492,-0.0395902955834453,0.125281390348866,0.360356375256545,1.90831508438548,0.750100221987107
426,1157,6.89694594545937,-0.890859610704061,0.98202327172415,0.101713093174244,-0.017580787266164,0.0997173325974718,1.35876610837461,0.868707421708934,-1.16740409317517
427,1158,6.8988001439914,-0.890366659464529,0.982104264044276,0.106567607185828,-0.00462158534375892,0.0655795806082505,1.65632099412703,0.21155984284237,-2.32762010419232
428,1159,6.90064263282135,-0.891305490042852,0.981923829709938,0.100724239184176,-0.0175262999385049,0.0304162646206653,0.89601628763009,-0.346016539100922,-2.5708434500575
429,1160,6.90242024132355,-0.891757611498106,0.981666372035073,0.0883289172117859,-0.0418884572632309,0.0116561357119174,-0.670437766935861,-1.25744224744774,-1.39674273727004
430,1161,6.90339911158993,-0.89227612114781,0.981457650307936,0.0636693297885187,-0.060367928091256,0.00614667663368302,-1.57797586729866,-1.11641431379814,-0.389224913188802
431,1162,6.90314765562732,-0.892607520931895,0.981272603303368,0.0232232038815378,-0.0635972004493943,0.00403779602736913,-1.57216032428817,-0.712673026236097,-0.12571562200749
432,1163,6.90188348422443,-0.892674762304161,0.981096548207859,-0.0125731428843244,-0.057406246660035,0.000837295628309337,-0.408083175844862,-0.592987182560544,-0.247453798569892
433,1164,6.90025276783678,-0.893115074474435,0.980999110330254,-0.0364450781306732,-0.0634753628523215,-0.00543221478534735,0.457863367424025,-0.409054363875821,-0.650367545662475
434,1165,6.8976852836573,-0.893765011420761,0.980826296232958,-0.0658546521187366,-0.0728301814736839,-0.0107726894144834,-0.251063176967144,0.407201704581512,-0.544677987198405
435,1166,6.89574445533029,-0.894836073201605,0.98064923756448,-0.0806721528672388,-0.0889865933831456,-0.017817030996822,-0.493789844785489,0.93083846670219,-0.741389273805019
436,1167,6.89411774933251,-0.896152325073256,0.98049084729797,-0.0838244623976684,-0.105098751270623,-0.0239710430447271,-0.519715892418697,0.933077642939293,-0.693441507115268
437,1168,6.8930209277458,-0.897403213679266,0.98033185739942,-0.0766143356873938,-0.110525162698432,-0.0277057912826252,-0.300237195206822,0.526618585348245,-0.490931715062237
438,1169,6.8924815505628,-0.898721742006486,0.980187615257126,-0.0631688817575425,-0.107368187913244,-0.0277971832909692,-0.0228107388584783,0.19805721991064,-0.210036060631324
439,1170,6.89236844493537,-0.899891410745745,0.980079948798721,-0.0497371692619887,-0.0905337837726081,-0.0267637295072227,0.386027883715535,0.180317121993703,-0.127157099891727
440,1171,6.89253352412007,-0.900951574997451,0.980125079402456,-0.0361342980287899,-0.0703660239928354,-0.0231033573135671,0.542361468189329,0.393747118187586,-0.00893179755652863
441,1172,6.89278346753566,-0.901788984722982,0.980329568237101,-0.0281148263265052,-0.0549744251052956,-0.0145648737245631,0.360582585910056,0.533130481536362,0.308262992822877
442,1173,6.8929854992516,-0.902930047666306,0.980710689560076,-0.024799156550582,-0.0539352590906005,-0.00155254993323224,0.168950347962678,0.577417172555153,0.652875596215946
443,1174,6.89299488188123,-0.903659042111202,0.981259184297483,-0.0261511196153537,-0.0546899275673336,0.0120966693950782,0.187666382758785,0.442002666918675,0.751182742950658
444,1175,6.89286851640448,-0.904153611870702,0.982026981367864,-0.0275500001546791,-0.0576303337998558,0.0203490373484133,0.259654990530833,-0.268395081756007,0.370321480897316
445,1176,6.89274037994557,-0.904586958010104,0.982758262012074,-0.0256927127119386,-0.0610618739991853,0.0296877789748139,0.0240053755554917,-0.269468065518629,0.503860657978938
446,1177,6.89254925403885,-0.904714943962071,0.98351611449376,-0.0248372612481373,-0.0572558285628064,0.0369518281675778,-0.0804166608208481,-0.571210694359524,0.36821041923833
447,1178,6.89233781322454,-0.904814805389692,0.98425134013585,-0.0325956305104056,-0.0470533376466154,0.0425131563620239,-0.100237379886365,-0.481140069396633,0.357032172048766
448,1179,6.89209401980557,-0.904908777003321,0.984985974223119,-0.0357838554590425,-0.0424766369205147,0.0433056410671896,-0.140910651036451,-0.990230027982225,0.0293097733047604
449,1180,6.89191525737572,-0.905142448723783,0.985714741785856,-0.0293770565814907,-0.0395145029620008,0.0476004306347272,-0.0763570711463841,-0.473819735216599,0.267530179399554
450,1181,6.89181455942223,-0.905546859749711,0.985230174024374,-0.0192027855005935,-0.0410942344125281,0.0463664426169704,-0.089511580464925,-0.151561307825254,0.134232694582761
451,1182,6.89185324177922,-0.906201421213174,0.984922466148121,-0.00747180630665885,-0.0483021699047255,0.0459198910161353,-0.156962386777641,0.238323669174715,0.210530486051575
452,1183,6.89192880645891,-0.907340356414537,0.984662634871404,0.00238704385219544,-0.0619116606083914,0.0447424296137659,-0.0348645159637249,0.36619006394245,0.220706728907268
453,1184,6.89196087169542,-0.909095307101844,0.984326298055993,0.00740381039225134,-0.0837423518645793,0.041699899106004,-0.102339767599852,0.274274343844359,0.156747489445457
454,1185,6.89198701835799,-0.91111783391911,0.983986757669356,0.00965699311331004,-0.104534112100006,0.038691399214475,-0.0329780015543651,0.373708657557623,0.222651017657692
455,1186,6.89202454048642,-0.912976825156573,0.983619053649442,0.00816307454271959,-0.119477789790703,0.0341398971957969,-0.0646564165547632,0.32919841565298,0.113639839451641
456,1187,6.89201148987717,-0.914510669278025,0.983064609023889,0.00225649609861542,-0.122931324261462,0.0280945539097561,-0.137388286330971,0.458982048215391,0.0509591936003449
457,1188,6.89181074397376,-0.915723284179763,0.98255787295516,-0.00983678307913657,-0.117108871575006,0.0227896674264629,-0.101414233823142,0.599413756873975,0.048120978048384
458,1189,6.89133795567087,-0.916656584452301,0.98188438805933,-0.0256083898461654,-0.105342470410854,0.0173641091499031,-0.0293689567808993,0.790648987373439,0.0766714151600875
459,1190,6.89071244189263,-0.917352109808718,0.981203262392934,-0.0405091019063537,-0.0901030007362047,0.0113503246083118,0.0977990977336841,0.817599119630193,-0.0443307291287439
460,1191,6.88982266320518,-0.917773822630395,0.980602268884117,-0.0559345598495374,-0.0762845322943197,0.00514186619632579,-0.258338635618113,0.779742012764011,-0.0812970039971796
461,1192,6.88885970655287,-0.918026113807559,0.980042311159319,-0.0617033930174317,-0.0635051021256348,-0.00345484488939092,0.17170556709611,0.685168182603172,-0.182785546944411
462,1193,6.88790995140253,-0.918119209920915,0.979531012528965,-0.065064397580471,-0.050100046446041,-0.0105831063245026,0.0940216502522382,0.763898320536042,-0.226769602583242
463,1194,6.88704237904806,-0.918112590554482,0.979087191042349,-0.0649917989300226,-0.0409365580630046,-0.0160408108690425,0.0216663976197317,0.839827315837666,-0.283114815938885
464,1195,6.88628942747999,-0.918067387938738,0.978719252747087,-0.0608667647267303,-0.034863141303091,-0.0209560632119367,-0.099598298027593,0.846993514846895,-0.401057787600185
465,1196,6.88563839645352,-0.918048006732825,0.978420789842981,-0.055427997670931,-0.0310327953562704,-0.0248410441272451,-0.163796695955388,0.755795269735608,-0.426627795862832
466,1197,6.88509384609438,-0.918068059139689,0.978183378216119,-0.0494816687525769,-0.0260769033348749,-0.0282538320898927,-0.0882016533301234,0.583327218071832,-0.465038470953518
467,1198,6.88461663911921,-0.918119664117365,0.977994414064263,-0.0455406315298216,-0.0204890198846646,-0.0312132191889967,-0.0465092185960349,0.3185657973643,-0.483114510165955
468,1199,6.88417340573507,-0.918159248271952,0.97783728369467,-0.0432802550779879,-0.0116655949199256,-0.0340376386563115,0.00752049362792216,0.149305225776936,-0.507957548954003
469,1200,6.88374240486408,-0.918154678757555,0.977700478817339,-0.0418760561679058,-0.00113469841679412,-0.0360080408893161,0.0932749592740624,0.0426987139182301,-0.467121948618382
470,1201,6.88331381732548,-0.918088522718375,0.977576888103676,-0.0397741551031506,0.00835803823883399,-0.0370516996330907,0.201451162025535,0.177661941056983,-0.444491141066421
471,1202,6.88294804997529,-0.917987710773412,0.977473611314544,-0.0360277795209421,0.0161248440900485,-0.0378304242105662,0.240243567145671,0.139736451308189,-0.439741177465927
472,1203,6.88266438114298,-0.917886590590399,0.977376564439493,-0.0320622077029633,0.0189819027403731,-0.0375949825218468,0.225095825715125,0.22350106797736,-0.326161546841658
473,1204,6.88247910893771,-0.917812653823014,0.977294373506259,-0.0275039709525154,0.0206133793360219,-0.0355745076197299,0.240168683182885,0.313095635071721,-0.157507334595401
474,1205,6.88231822525851,-0.917756864602057,0.977233670973857,-0.0231136802921268,0.0205103986264919,-0.0324949029832975,0.185155514347461,0.317926433913915,-0.0409648959551586
475,1206,6.8821995420048,-0.917710686186085,0.977194067368962,-0.0178331137334394,0.0183333234228953,-0.0299603020744283,0.226138875014455,0.204413780958698,-0.0719566761961966
476,1207,6.88213360588844,-0.917659716547122,0.977166501000947,-0.0115616082800878,0.0152322874266772,-0.027079560852136,0.235612801599872,0.0740070883369135,-0.00182535985785199
477,1208,6.88207703418829,-0.917621974577075,0.977142702242809,-0.00634043146505478,0.013035226424733,-0.0240879788359896,0.162130230748659,0.117043554887732,0.0474400087539425
478,1209,6.8821567196843,-0.917567189517791,0.977101881355817,-0.00449408882029446,0.0144552109104252,-0.0225502036498162,-0.0629113415696453,0.124906523702014,-0.0129736564393638
479,1210,6.8821220288164,-0.917458251167587,0.977040037574973,-0.00363922225710214,0.0147081148267588,-0.0239746562277229,0.356497730139923,-0.0355454734455231,-0.341554563408954
480,1211,6.8820492358206,-0.917300753762156,0.976951329191099,-0.00387955634908217,0.0159502188169018,-0.0262049985401037,0.352899478939354,-0.13498998190302,-0.399725550909744
481,1212,6.88186072051382,-0.917121320579543,0.976839074911291,-0.00167245238071317,0.0173516070911678,-0.0287862161099566,0.275976007688884,-0.178130522052523,-0.395443507841233
482,1213,6.88169687668214,-0.916909940637209,0.976681741072084,-0.00257480523260464,0.0215137343032069,-0.0291412172115151,-0.0399574858575019,0.0531727818637784,-0.190506436545467
483,1214,6.88148730754308,-0.916671845655518,0.976507443978875,-0.00225944837732126,0.023694766319376,-0.029666831553197,0.199650267047642,0.0872435495359561,-0.206920332339347
484,1215,6.88131118210586,-0.916432819437778,0.976310879003915,-0.000817696147184633,0.0233338547615572,-0.0304995007074725,0.145787311824843,0.103530096294086,-0.204903576126978
485,1216,6.88118414108109,-0.916197896640046,0.976096466293983,0.00122933289910462,0.0222305522091255,-0.0311800205415946,0.0850538683868208,0.0852906364093692,-0.192356163764289
486,1217,6.88107725858959,-0.916008270015646,0.97586218888091,0.0030886235736941,0.0205595273001176,-0.0317481450343611,0.0265601413210409,0.0974137552667541,-0.176558953164655
487,1218,6.88095832696588,-0.915863858604265,0.975544235171911,0.00369892114625347,0.0190159466367284,-0.0317595714328171,0.0998268864707676,0.165698209447776,-0.109795913727453
488,1219,6.88077378720527,-0.915721280351132,0.975214295809753,0.00147776254540488,0.0211516597549271,-0.0318350929844302,0.0904573727101131,0.112556526320771,-0.07914223943048
489,1220,6.88051910905288,-0.915561727386713,0.974930855674581,-0.00236091760309357,0.0247340360843895,-0.0303010076328983,0.0807257729661074,0.104337278812546,0.0663449570776745
490,1221,6.88025964612776,-0.915396320727163,0.974690449618393,-0.00432203364098773,0.0278133988316255,-0.028083618169625,0.0786035811493592,0.150028154969539,0.102964916204559
491,1222,6.87999437109857,-0.915218893610142,0.974507111738271,-0.00529375129264289,0.0291674993656911,-0.0259301798225545,0.0486750340714615,0.257069276771172,0.0854670510167714
492,1223,6.87983931203616,-0.915054747486907,0.974230094167721,-0.00346159448857517,0.0299802915082386,-0.0241945878252187,0.133982345393505,0.280474312906648,0.107784509131767
493,1224,6.87975406452714,-0.914875449800058,0.973999329762675,-0.000517340554466837,0.0311176955689151,-0.0226517570353672,0.256623413655434,0.336699283616948,0.102752730341627
494,1225,6.87973568464103,-0.914721765719356,0.973689716467978,0.00108668518942847,0.032578281953345,-0.0223986839528268,0.336416608653852,0.246543916694532,0.0929677362174176
495,1226,6.87985236281964,-0.914545594842934,0.973310786443086,0.00464142540799095,0.0333499988964372,-0.0216942116465275,0.205339480791453,0.474598908242983,0.276910854448303
496,1227,6.88006389503406,-0.914364283716415,0.97304507144197,0.00920486003485864,0.035239020738746,-0.0187426773812233,0.202011938910085,0.624266896074663,0.537080004892294
497,1228,6.88044624078371,-0.914143863712597,0.97291517408666,0.0165348466344731,0.0348144808546197,-0.00969808448150134,0.305821425206492,0.604100496660891,1.05202554898464
498,1229,6.88077720107347,-0.913755912060416,0.97284531511863,0.0163998920630171,0.0335793757975593,-0.0084729003542483,0.00769794670087479,0.211702083904892,0.297704248366302
499,1230,6.88113284388975,-0.913456198694107,0.972809859309699,0.0180123797150783,0.0354485237257551,0.00105721338343343,0.511429552317935,0.607203295265211,1.04981898750763
500,1231,6.8813428551692,-0.913015220710394,0.972868159734068,0.0146130776464385,0.034020421057957,0.00605436552844956,0.195422576121242,0.0608641748606865,0.489998108523698
501,1232,6.88154699592422,-0.912619715716538,0.972957381867349,0.0121296826239779,0.0328633401455144,0.0113952944243452,-0.152601559780936,0.0873037110357854,0.455607447638989
502,1233,6.88161597770769,-0.912216322354542,0.97305953237894,0.00593545480830186,0.034946835692416,0.0161059720414465,-0.277134066328864,0.137447810085266,0.438010217831692
503,1234,6.88175610294624,-0.911499749003382,0.974807779710679,-0.00156730190313876,0.0508852254721268,0.0283923402580954,-0.605101722356453,-0.0305616077335637,0.13353910946452
504,1235,6.88173724075782,-0.911433922730814,0.976527521378878,-0.015002202251648,0.0556679722440283,0.040883947297616,-0.155102793897721,0.0113469439231122,-0.16048712303284
505,1236,6.88167308651083,-0.912097467171534,0.978666356830526,-0.0148950989483299,0.0421646204063482,0.0450143919849755,0.533523243183274,0.229423664106733,-1.17662771004807
506,1237,6.88165025062787,-0.912337148578172,0.980048738883563,-0.00169392434267133,0.0371523476682285,0.0436748479846123,0.850655177677515,-0.191807616556574,-0.846489024184021
507,1238,6.88139392840961,-0.911945749833444,0.979603020961511,0.00742518986498674,0.0345950369319573,0.0322245485187018,0.57925623369757,0.395276719334338,-0.603306836120239
508,1239,6.88127739929324,-0.911190343831778,0.978641758016883,0.0174539523287469,0.0444477066014906,0.0254689252996675,0.627174633341525,1.98168546775934,0.906569649667392
509,1240,6.88112695415652,-0.909986578588478,0.978040474221412,0.0207163303350059,0.0656799049899291,0.0235806534473914,0.784110546803298,2.48227990316042,1.12897506744842
510,1241,6.88124441478353,-0.908286866285967,0.977670458821952,0.0199485500532205,0.0820493080632771,0.0198841635067573,1.10911107836808,1.14305537452066,0.28601327462894
511,1242,6.88135762463377,-0.906529184761262,0.977198146542077,0.0168241955258174,0.0889898783412853,0.0191348060286051,1.47483297648663,0.16364366865541,0.437606934801217
512,1243,6.88124035775965,-0.904478702473744,0.977615042660831,0.00727531980929631,0.0972690533860297,0.0289001143194049,0.928177555337791,-0.53866417622771,0.759561338389425
513,1244,6.88144684534733,-0.902663458843431,0.977244576361513,0.00512991657582147,0.101412618277813,0.0309424532647671,-0.218202837903761,-0.817073137287408,0.616730508044625
514,1245,6.88146321862338,-0.900987994832508,0.977539542106391,-0.000176638442388092,0.0976500398260493,0.0250037152203361,-1.24771941003051,-1.45543519478351,-0.208232576796096
515,1246,6.88146034025957,-0.899745909043784,0.977176194176468,-0.00166357090602536,0.0961443569271166,0.0285378075465828,-1.10983094579652,-0.340482308472943,0.67125414098752
516,1247,6.88149412348932,-0.898810935521845,0.977511588573145,0.00746944511115866,0.0878785869595866,0.0290199847345912,-1.0907247564796,-0.682231257195201,0.128934366779197
517,1248,6.88159963284786,-0.898166017013995,0.977695610624132,0.0208108922566105,0.0777419710714104,0.033602344986517,-0.651819728089073,0.164636341120922,0.553560056601176
518,1249,6.88169873600512,-0.897614383597501,0.977956529994326,0.0264513224665028,0.0720818635526295,0.0338131785055458,-0.236490212520085,0.238849944195416,0.282609900293773
519,1250,6.8816555654475,-0.897026850139999,0.978092474674474,0.0234664279038613,0.0742134965894585,0.0286675940122862,0.42116655034747,0.390944360142096,-0.131798774474319
520,1251,6.88144861894742,-0.896164043053591,0.978271334010274,0.0156086397604874,0.0825690070756512,0.0208422725483677,0.987768545967751,0.345755585889414,-0.432263222799518
521,1252,6.88111920032555,-0.894968154131373,0.978321228683045,0.00693976246399601,0.0910451142929202,0.0119837150919274,1.15658913695904,-0.00491164634770671,-0.566812652047009
522,1253,6.88056275823871,-0.894197964479426,0.978365607336576,0.0017646792224905,0.0909289085027969,0.00439597346815839,0.975839844846419,-0.322626489727265,-0.511718481867572
523,1254,6.88014326431897,-0.892741016378996,0.978357266253354,0.000790229424316381,0.0926065949136922,-0.000865367313100573,0.939936873414445,-0.389272545146071,-0.305785571384041
524,1255,6.87983408157148,-0.891462703488431,0.978327376416897,0.00462810229181092,0.0922421152075773,-0.00361564352828908,0.937945456461394,-0.50716985181762,-0.124542340609791
525,1256,6.87979185224125,-0.890155666157137,0.978332162655787,0.0108402461960208,0.0910808196162189,-0.0043160239924943,0.756825233250735,-0.630363633464843,0.00887580941062033
526,1257,6.8799961297438,-0.888901501072685,0.978413874492721,0.0183100672252298,0.0926041855746568,-0.00640578148274375,0.725893292427271,-0.658155160040552,-0.144378400417581
527,1258,6.88061920647314,-0.887765429041712,0.978306593660495,0.0183889151856388,0.0998580152420738,-0.0119609016254362,0.576395967089628,-0.875165696979357,-0.483224459929393
528,1259,6.88106232479336,-0.88672680461933,0.978380857228525,0.0273094490008493,0.0965523247387125,-0.0125824891546305,0.422378694716563,-0.335046341577006,-0.193878892157942
529,1260,6.88140831955404,-0.885762578347922,0.978485288480706,0.0233968510054699,0.0965241357758426,-0.0140427024720426,0.458560194833204,-0.752985766725695,-0.277952378477003
530,1261,6.88161990660175,-0.88486946670605,0.978679164052358,0.0209941941153765,0.0944118267991116,-0.00862273488618447,0.259574045042092,-0.428305021121617,0.157869901229746
531,1262,6.88170745170129,-0.883724571119638,0.978963682669192,0.0200382285300548,0.0976261880887632,-0.000586880628205748,0.0294971537555755,-0.144938872632389,0.377823309495741
532,1263,6.88176326776593,-0.882413182361655,0.979315751950982,0.0187932501452971,0.103427977957229,0.00750538990669207,-0.286553304102245,-0.0219120551773006,0.40219307839689
533,1264,6.88177771033832,-0.880941960911184,0.979718860309025,0.015285093099483,0.108598343648576,0.0141954444952139,-0.484821933368055,0.0159144422951004,0.289643817141885
534,1265,6.8817825218691,-0.879416097748989,0.980181209536663,0.0127553665768767,0.110685695360294,0.0213623586243281,-0.618154849855466,-0.188426660396221,0.305100241150623
535,1266,6.88182857976224,-0.877874273128132,0.980688676991817,0.0103612952139434,0.109721876143045,0.0276617847079982,-0.528818994027909,-0.174563562296292,0.246322563562927
536,1267,6.88190704727417,-0.876342229366544,0.981207540017393,0.00777147885102407,0.105717556460574,0.0332272315532857,-0.358470676806082,-0.511591973381049,0.242622611036284
537,1268,6.88195548679586,-0.874867927727217,0.981701303928173,0.00359824813560792,0.102099707806519,0.0376788627191768,-0.304627389746403,-0.604734831050392,0.269046601213341
538,1269,6.88187232506049,-0.873523628678275,0.98220301420049,-0.003672682417098,0.0982550624432332,0.0413368403991005,-0.224742350984335,-0.714707945639018,0.193734039137204
539,1270,6.88158634002178,-0.872523115692826,0.982695264182065,-0.0134935537678646,0.0904613780920134,0.0428565534407865,-0.181943513726621,-0.782835186472259,0.041879707085066
540,1271,6.88105826431886,-0.872408255152441,0.983157794288339,-0.0246199941369906,0.0699675973820379,0.0444006295939282,-0.398151825213398,-0.621738980992785,0.0758764040641545
541,1272,6.88031046958177,-0.873363589440458,0.983573314930184,-0.0357112769518207,0.037629674378739,0.0452224570319248,-0.508599034124621,-0.530007485036039,0.0828034654488195
542,1273,6.87949340990622,-0.874966908440441,0.983921476352843,-0.044506575425507,0.002124908789129,0.0452251604457319,-0.654443699757778,-0.476185722650752,0.0846382913988617
543,1274,6.87875489707302,-0.876700534239956,0.984194255264648,-0.0495693780706894,-0.0287213719638973,0.0432245434100781,-0.566828829010506,-0.49224629188016,-0.0238623392819543
544,1275,6.87822167649751,-0.878231210252191,0.984403742597394,-0.0501039158444699,-0.047986141668678,0.0398619542659973,-0.500392343801831,-0.258351120412901,-0.0934927690494722
545,1276,6.87795731477202,-0.879420410995513,0.984566115683215,-0.0467373471480184,-0.0586406211585712,0.0354247816405788,-0.40036124602021,-0.25584654704544,-0.227916531175807
546,1277,6.87793536037748,-0.880212440181024,0.984687320378003,-0.0412198650201601,-0.0611143103879284,0.029022650430571,-0.251592240084965,-0.317092415155823,-0.467508872770664
547,1278,6.87816268894942,-0.880665778589534,0.984759312052119,-0.0311197513150006,-0.0606018998159939,0.0211482594539384,-0.171641775871674,-0.338235983086859,-0.684680611529896
548,1279,6.87860200799425,-0.880924231197564,0.984791135909926,-0.0194572829012677,-0.0587168663977073,0.0165995004293335,-0.299983416015062,-0.0636850353317928,-0.38437057086374
549,1280,6.87915528561587,-0.88107001266707,0.984802078535239,-0.0085151083023506,-0.054933229772783,0.0117616351298413,-0.170245134755412,0.14244369165374,-0.383733109553689
550,1281,6.87976518932731,-0.88113354961297,0.984787917453516,0.00201642831060931,-0.0510321163309696,0.00780032126649309,-0.0714771413956268,0.166689481805621,-0.342639020034909
551,1282,6.88043968258369,-0.881144598654231,0.984775393049098,0.0115765620063648,-0.0508179279615221,0.00503349166636233,0.0258296755448996,0.0409630197340938,-0.276011162929399
552,1283,6.88109997678614,-0.88114507547685,0.984751419803157,0.0193951868586645,-0.0522872569344772,0.00132044283427741,0.0385897397743375,-0.0357894800002798,-0.383587091817408
553,1284,6.88168817329057,-0.881131862637002,0.984704463783641,0.0241874664351659,-0.0509827224815455,-0.00361925893658105,0.0458494423830494,-0.0704929108374382,-0.464530357589155
554,1285,6.88219545210347,-0.881108452195144,0.984634086381561,0.0274038046914387,-0.04805078845569,-0.00652105344792071,-0.0344300335681858,-0.184526939164485,-0.294131908698201
555,1286,6.88261466312357,-0.881068945678199,0.984256083842645,0.0297688191628007,-0.0425144282462597,-0.0117321380968862,-0.129294390798519,-0.223270728034774,-0.11286837269303
556,1287,6.88349197795482,-0.881134834368445,0.984092746096839,0.0365253434558142,-0.0361037389148075,-0.0139726044231291,-0.187061042601936,-0.196777838471423,-0.124759224994475
557,1288,6.88415322650273,-0.881123727116213,0.983893269352791,0.0414591086664411,-0.0291158379788042,-0.0163786081618055,-0.161456641836327,-0.189140174801434,-0.136509121823696
558,1289,6.88513910594677,-0.881181607757009,0.983635464926044,0.0492840109526426,-0.0254171368206965,-0.0181913729045059,-0.22457073711005,-0.0615812482707034,-0.0350665078033005
559,1290,6.88631717442424,-0.88122910322098,0.983341105098412,0.0598810214871888,-0.0221826848033349,-0.0200110932376209,-0.277578084621205,-0.038361988005118,0.00285583340024619
560,1291,6.88782420618494,-0.881279125141283,0.983027748706295,0.0752560571880186,-0.0205655387383107,-0.022297640235953,-0.379138230661283,0.091468343603607,-0.0318282634506146
561,1292,6.88956714962697,-0.881283017217577,0.98269422736395,0.0914569486616412,-0.0180996440185974,-0.0266232252610668,-0.376207571413658,0.0245033203510136,-0.160706812076281
562,1293,6.89151855310807,-0.881228947715439,0.982345567554338,0.108099243273055,-0.0147326363959805,-0.0320927982193553,-0.299571189145437,-0.00335915254884604,-0.256665611251663
563,1294,6.89356226941608,-0.881135695218746,0.982006730243121,0.123160570755051,-0.0130698304364303,-0.037412196774978,-0.238695066077903,-0.118010646263875,-0.292938596935174
564,1295,6.89557686892385,-0.881033876207635,0.981703229358085,0.136509426439418,-0.011860353662623,-0.0421025707967532,-0.213991004221308,-0.137869563652643,-0.321018851297388
565,1296,6.89748419558855,-0.880938434680646,0.981450917656198,0.145729314657614,-0.0115175309775416,-0.0457799000388124,-0.190074234415258,-0.166472444683971,-0.352112674372652
566,1297,6.89923818902781,-0.88082958357449,0.981259829810817,0.150430011000151,-0.00901370581926265,-0.0482369461099497,-0.169689239874692,-0.275794709054353,-0.362788816993122
567,1298,6.90077962858682,-0.880747657230895,0.981148229530963,0.150514126901123,-0.00745189883796349,-0.0493416398388848,-0.0972521029361624,-0.267534728136365,-0.387743565965919
568,1299,6.90212044658119,-0.880731476562313,0.981128922608755,0.149827742012716,-0.00758042254275494,-0.0481768701573112,-0.100538299576548,-0.187392133913309,-0.349574993743657
569,1300,6.90325540062151,-0.880772100181365,0.981197805302776,0.143964804508088,-0.00805289391959766,-0.0454919854596156,-0.0274066557256839,-0.147452633050252,-0.321971864875094
570,1301,6.90424157708042,-0.880844708781765,0.981350724254031,0.135736761619143,-0.0108252756066042,-0.0408124555483103,-0.0449824541284984,-0.107217003926894,-0.254432057777905
571,1302,6.90503447607643,-0.880899507863554,0.981588554138697,0.125568879312101,-0.0119635290778355,-0.0348280793333097,0.00154747122784516,-0.133298735502114,-0.20838106372951
572,1303,6.90567402671838,-0.880905671714235,0.981900193063834,0.111519474922906,-0.0115656672595159,-0.0287983690786316,0.0566356992617795,-0.236322534044951,-0.220494191327558
573,1304,6.90611240112201,-0.880852745323174,0.982261937640823,0.0968510280664754,-0.0111154639782566,-0.0214711265810632,0.0638856682820705,-0.300823718650274,-0.128346588077225
574,1305,6.90637950752528,-0.880692617697684,0.98266850849953,0.0827998688200861,-0.00914362135933782,-0.0134341275466135,0.0521271147402812,-0.439753005148872,-0.0496136535695551
575,1306,6.90643253162506,-0.880483656674637,0.983117961232186,0.0674582785811057,-0.00668499124259713,-0.00521341616038555,0.0787969730435892,-0.413506818230709,-0.0292867687751153
576,1307,6.90630541892613,-0.880243034616689,0.983597720338387,0.053848433760864,-0.00465223249796286,0.00338562602060869,0.0661989246160596,-0.470541993735221,0.00626632026887434
577,1308,6.90597934357514,-0.880010660581813,0.984061918902871,0.0401598719027175,-0.00119116859938743,0.0107016806337237,0.0717126624118847,-0.468521003542971,0.00256641784006303
578,1309,6.90414243183095,-0.881208217594381,0.983911100334808,0.0035892097016189,-0.022854697548602,0.0101843486458816,0.0879404220200966,-0.430441019232824,0.0591605965704211
579,1310,6.90180270968593,-0.88284316924951,0.983737044303867,-0.0359853257166754,-0.0474538818784103,0.00791930261386147,0.124708945437298,-0.336384359721929,0.00240718001452408
580,1311,6.89934815968355,-0.884711277172739,0.983509476012903,-0.07040803099435,-0.0699262922431952,0.00515181419044993,0.0805444367701502,-0.309329755754455,-0.0202437990425838
581,1312,6.89707491786293,-0.886714217736335,0.983224153264635,-0.0949064361103601,-0.0919993177759292,0.00240564536248526,-0.0344710055334016,-0.227124348916611,0.00425825870309166
582,1313,6.89512542947991,-0.888728861688322,0.982882578294871,-0.110729845551823,-0.111673575831204,-0.0003290561700878,-0.112278241697789,-0.102428150418482,0.0502027419724982
583,1314,6.89357443704325,-0.890639587271014,0.982503362692702,-0.119684940443962,-0.126134034522811,-0.00306065282538282,-0.223870927673256,-0.027562299842891,0.0880819186275076
584,1315,6.89242879321937,-0.892359999654695,0.982112419607729,-0.121088361004772,-0.134297072292895,-0.00557294917983234,-0.220630967598287,0.116236432975749,0.111795531517094
585,1316,6.89163956627104,-0.893827929719182,0.98170823513498,-0.117835194058754,-0.136220020158106,-0.00996905876256258,-0.169965477376484,0.0717514972008496,-0.0875046675648633
586,1317,6.89115584665096,-0.895070574724439,0.98130152368565,-0.112043174352314,-0.136198718247844,-0.0116792661180985,-0.281666911452742,-0.178310649276856,0.1458513427123
587,1318,6.89086090411915,-0.896113085585099,0.980917771124225,-0.105091640648546,-0.134433621297245,-0.0155733822423827,-0.305709518689425,-0.388364569715535,-0.138297742318274
588,1319,6.89074769254153,-0.896975056405408,0.980489914158951,-0.0952045424327594,-0.127344217940475,-0.0245535579378956,-0.139885168449103,-0.571478070844516,-0.68176383315581
589,1320,6.89079678027984,-0.897784809806812,0.980045913924398,-0.0865929011228376,-0.120384230520607,-0.0209206759519782,-0.663532897085592,-0.408460608849778,0.576093711287071
590,1321,6.8909237240754,-0.898532199969969,0.979683194615486,-0.0729020560932218,-0.115558106648654,-0.0205928390068888,-0.109851349493301,-0.687941704971752,0.233066522208878
591,1322,6.89111330290339,-0.899254886168141,0.97934317208249,-0.057159883956127,-0.111154368742192,-0.023668280430319,0.132818766230884,-0.622946359816553,-0.112467616905586
592,1323,6.89138466639893,-0.899963676904412,0.978965229394405,-0.0449306309477952,-0.105910657299077,-0.0200624526846526,-0.228357108521899,-0.520348473082437,0.572828084493817
593,1324,6.8917082198676,-0.900645328234478,0.978722984217424,-0.0300608198522502,-0.104249788601725,-0.0118879248768249,-0.0656437551695304,-0.589827364214144,0.91583052605251
594,1325,6.89209721993509,-0.901296977404972,0.978508106952862,-0.0136325191663798,-0.102327506246111,-0.00264946201644991,0.0434213862691602,-0.331327542776782,1.00180278384909
595,1326,6.89252374734067,-0.90190258414796,0.978093555379268,0.00127723854020427,-0.100386832480134,0.00205169734595998,0.125896339977533,-0.302953674644004,1.08286878683542
596,1327,6.89300838528695,-0.902295928941458,0.978096884492268,0.0158326869410729,-0.0951439344705966,0.011841373504177,0.266534775892261,-0.221900364922127,1.11750229375663
597,1328,6.8936079532345,-0.902742820958401,0.978009190572706,0.0234008870104215,-0.0870582782228754,0.0193915985772267,0.34655198968248,-0.525762459184885,0.936649702934299
598,1329,6.89418583226694,-0.903040675544716,0.97803612233831,0.0326747912312786,-0.08563617465019,0.0287083181638069,0.13597888385406,-0.272109704117278,1.29672059151496
599,1330,6.89476035632736,-0.903334048440293,0.978228438292236,0.0420694696233844,-0.0866725420318642,0.0421474053693965,-0.0452310211122875,-0.576627605185246,1.7621939716348
600,1331,6.89539366069989,-0.903722507198862,0.978549968195295,0.0599103519828272,-0.0867346106892878,0.0522486377992808,0.251410887012822,0.580353534634538,1.33162449793731
601,1332,6.89609119957313,-0.903907043415963,0.978895411910025,0.071289583974327,-0.0769890985577066,0.0531306965462226,0.338997561691977,0.812838359904961,0.426862108526595
602,1333,6.89692428446457,-0.904149949613605,0.979060500319504,0.0670117639088091,-0.0709914964210775,0.0418994049634505,0.391428991921878,0.624958688009253,-0.648563043780834
603,1334,6.89793991907912,-0.90511847429226,0.979204348047213,0.0753066409491819,-0.0655624432341084,0.0296178346217423,0.465482442797418,0.695145887500769,-0.839665897890015
604,1335,6.89867265566451,-0.90552572585044,0.979272236531928,0.0693663707740284,-0.0682182589050701,0.0125636894320725,0.0361109741523516,0.275743540583134,-1.16860390728974
605,1336,6.89916132286991,-0.90612982961756,0.979300290846226,0.0551558337166313,-0.0762460695744807,0.000435148583240842,-0.692441844056824,-0.337082921988572,-0.850111967393998
606,1337,6.89896972642455,-0.906805515197471,0.979333709974964,0.0244847793666626,-0.0872210214210021,-0.00512427509621353,-1.09856437874562,-0.767222962503547,-0.501292028208671
607,1338,6.89800037819388,-0.907855917768459,0.979433096084139,-0.0151759574170285,-0.0997679316190802,-0.00501230793988727,-0.982870405484476,-1.00570307811407,-0.317911567125645
608,1339,6.89650229643696,-0.908973376298537,0.979561663106864,-0.0493742473165575,-0.108058093917378,-0.00543373174353028,-0.31697299419132,-0.804189979038367,-0.477587002120193
609,1340,6.89479221968027,-0.910400655002118,0.979587085809981,-0.0747769890168754,-0.11902519572052,-0.00870515198589889,-0.0865691378520769,-0.441759342887429,-0.650373950970715
610,1341,6.89300003215063,-0.912045153485654,0.979645327310584,-0.0967014759400358,-0.128318362836444,-0.0122760949072898,-0.500365336364049,-0.143462210662684,-0.658239755512622
611,1342,6.89112605208682,-0.91369559319901,0.979687830816102,-0.109001038158492,-0.132681005192398,-0.0143797212115158,-0.299439034645155,0.227605297325057,-0.513044047856243
612,1343,6.88961788902921,-0.915406078897552,0.979719253625657,-0.106801751532909,-0.132797544140522,-0.0153733490980452,0.174777524959195,0.57321836168035,-0.35388449499317
613,1344,6.8886237604948,-0.916998497559772,0.979799598963658,-0.0945584295018246,-0.127470185000805,-0.0111133457956009,0.275067743650466,0.747005676255527,0.11782594899087
614,1345,6.88885934395914,-0.918531542340828,0.980106687363996,-0.0771737047122055,-0.113491107562187,-0.000629539324859874,0.403497534675727,0.8156842449523,0.666474865386052
615,1346,6.88876296115084,-0.919913366722318,0.980405750171852,-0.0596856997692764,-0.108710109190009,0.00867962600076636,0.39263887757472,0.856937969726528,0.757926975045762
616,1347,6.88900691147209,-0.920989697863555,0.980829853861649,-0.0293979217974386,-0.091390912235867,0.0183282944302834,0.336506188521379,0.695454987366586,0.940066573766711
617,1348,6.88934205074004,-0.921790694608466,0.981357296126697,-0.010759285909406,-0.0768568057769433,0.026369690693603,0.355117843037212,0.414974711501114,0.757214050208585
618,1349,6.88955015743362,-0.922285379074959,0.981965641785935,-0.00534657013474047,-0.0652586446523581,0.0323883584859786,0.256620448219227,0.0238382333668354,0.448385207428316
619,1350,6.88954385110175,-0.922629243373843,0.982473093373569,-0.00942620574785933,-0.0578140301315489,0.0329370058663822,0.316812498317955,-0.28098497949078,-0.0397625138138569
620,1351,6.88933814904986,-0.9228704361892,0.982957909047388,-0.0187037612367359,-0.0536952946436392,0.0312299435434622,0.299424838526377,-0.690611097829871,-0.245282979577898
621,1352,6.88977305769753,-0.924870584071372,0.983427037806333,-0.0137354166788991,-0.0850136149989102,0.0301098290319444,0.118477406191941,-0.849281108278343,-0.114496678138436
622,1353,6.89023734010027,-0.927183006217389,0.983746088298006,-0.00633425429933972,-0.115210886465065,0.0288015036942646,0.0544959156039468,-0.786752799382047,-0.0187162521265997
623,1354,6.8906180563802,-0.929321765264866,0.984135711847604,0.00232820225587548,-0.131088945366995,0.0285279965512691,0.127299984455403,-0.375605880822044,0.0572188861997978
624,1355,6.89086151313421,-0.92955952880243,0.984571013508089,0.0110578659225006,-0.116737151316455,0.0303015241362003,-0.0829000688821201,-0.172171151852695,0.239098044933083
625,1356,6.89125338159959,-0.93033921876422,0.983973718737826,0.0230468097812079,-0.110372464093931,0.0289788654881449,-0.139150960723387,0.461892734732839,0.317076112893586
626,1357,6.89166619628911,-0.931151220251644,0.983156062190705,0.0354760065204248,-0.109641068177516,0.0270655656214017,-0.25174816897741,0.732251071330545,0.317857385576477
627,1358,6.89195187989284,-0.932047620269778,0.982451567557701,0.0454702490146408,-0.114789194660681,0.0266011920453308,-0.270034632964796,0.882637054496951,0.286692835026634
628,1359,6.8921817809156,-0.933308726737612,0.981873381085772,0.0489772005382028,-0.119526836173493,0.0234754917381616,-0.0542001867822603,0.607235750030865,0.119186699963977
629,1360,6.89224688668369,-0.934538977024933,0.981577116070659,0.0440234898674895,-0.115920495145876,0.0207574725673787,0.0918088710509742,0.562894760628264,0.0941877528993664
630,1361,6.89212390602468,-0.935507008030525,0.981106503495766,0.0309186234469888,-0.104725142918619,0.0158631310150518,0.184394140482029,0.497853639930226,-0.0165128245207489
631,1362,6.89183821973873,-0.936148939281113,0.98049399169824,0.0150276884849064,-0.0885522786539063,0.00759135784082276,0.172393988344616,0.565903785478721,-0.163114060114319
632,1363,6.89143346411794,-0.936570493597811,0.979922081814248,0.000743062423741582,-0.0706413620305743,-0.000194088413377717,0.28731594700628,0.603202294691427,-0.231178909035461
633,1364,6.8909486232399,-0.936848173590074,0.979389731153723,-0.00926644949087849,-0.0558371676553641,-0.00647730217769015,0.382067036975364,0.764397198125744,-0.223382920852146
634,1365,6.89036597436981,-0.937045572067697,0.978913547666029,-0.0166167155417401,-0.0443722059109688,-0.0119154670771295,0.478597016568381,0.785823086760236,-0.250983593352311
635,1366,6.8897922767918,-0.937178835192923,0.978496276170599,-0.0220909879199908,-0.0351348692084919,-0.0170556901309642,0.442502033062188,0.676063029081641,-0.322554775924082
636,1367,6.8893883718215,-0.937405963391909,0.978041509530629,-0.0252852920292616,-0.0283102993853814,-0.0227453492915261,0.473037176575383,0.437126253707605,-0.469326802121261
637,1368,6.88895626119325,-0.937520945219464,0.977668334710931,-0.0271322058807798,-0.0257081680200458,-0.0257689617606078,-0.0337548649398125,0.42549455306764,-0.298979495473539
638,1369,6.88862197361869,-0.937727165166669,0.977256492755211,-0.0222696842603422,-0.0284106653024988,-0.0315685861292486,0.0760680898341466,0.369030212935142,-0.497126671920929
639,1370,6.88839161280693,-0.938044309341563,0.976926151551593,-0.015997682736345,-0.0318037040876238,-0.0351797819263025,-0.0963642924468766,0.471843042785209,-0.459425742905588
640,1371,6.88826840360082,-0.93844895198198,0.976681845768356,-0.00845828293433466,-0.0353678936540752,-0.0366060554397988,-0.0461074420374738,0.494197451748474,-0.388550308110191
641,1372,6.88823009798199,-0.938891580817369,0.976518302148493,-0.00272346813129646,-0.036409477366197,-0.0371973159489909,-0.0102500969246748,0.281948296462091,-0.381614032197741
642,1373,6.88826547132376,-0.939333270465337,0.976420599250892,0.00166736711787807,-0.034401825492289,-0.0367657994701565,0.0281061925533616,0.0760112085587098,-0.340570953629463
643,1374,6.88835825302528,-0.939750349833176,0.976211292924525,0.00463321235519446,-0.0295659154802317,-0.0376884491305677,0.0804607927307454,-0.0377308181280023,-0.304012692987453
644,1375,6.88846350220717,-0.940144640026071,0.976055741644243,0.00566071698867897,-0.0229208128340187,-0.0380976886488574,0.0572635989943027,-4.34689960333465e-05,-0.26617085848509
645,1376,6.88858289978019,-0.940518579413576,0.975951151540133,0.00614311221967274,-0.0166252285458707,-0.0372022431272261,0.121022563229924,0.0741169843101585,-0.201581456702886
646,1377,6.8887073953413,-0.940864397805689,0.975897227888948,0.00653285694125907,-0.0113831713020704,-0.036263915216867,0.182174614075096,0.15215676887615,-0.220963208075019
647,1378,6.88887513618899,-0.941200079418225,0.975885071356498,0.00815628745115158,-0.0106211996440632,-0.0348300555506576,0.0566820482150148,0.0954140749058174,-0.209587537528683
648,1379,6.88907343770095,-0.941547923094528,0.975783889893278,0.0109465005723745,-0.0132537314107887,-0.033909013173164,-0.0481276811380385,0.0578231941686468,-0.173976089689542
649,1380,6.88942981542309,-0.942027364225869,0.975811333554132,0.0115242234090598,-0.0149872745574298,-0.0324009647953054,-0.115891556494295,0.0804263359220997,-0.0741855523493803
650,1381,6.88966150640705,-0.942419552101224,0.975844228277313,0.0166860255853629,-0.0198250032490965,-0.0323367945733889,0.107565411624481,-0.0503635897663992,-0.234266629800661
651,1382,6.88985895441667,-0.942612793560379,0.975867371041882,0.0213149815692143,-0.0203287055754334,-0.0298482412808636,-0.050731788551109,-0.0164907446849188,-0.125308781221882
652,1383,6.89014853627897,-0.942924106966503,0.975882067088244,0.0277755774834431,-0.0220053663708803,-0.0279285864447122,-0.00369833493043818,0.0106290850730293,-0.190368891748271
653,1384,6.89044520554159,-0.943156777326411,0.975879598003334,0.0333658863393939,-0.0229445522784718,-0.0265905085855828,0.0660339561130901,0.0585396412106805,-0.196259574384391
654,1385,6.89077919388243,-0.943397136357571,0.975857564805895,0.0376271309124948,-0.0226450072687709,-0.0266609174265735,0.153378701804218,-0.0441830119333337,-0.285029382401066
655,1386,6.89110881008801,-0.94358664982124,0.975808830848793,0.0393891428547511,-0.0209621448466848,-0.0271011973498263,0.194876394937481,-0.0666583192767252,-0.293123361319155
656,1387,6.89124024291367,-0.943878391145449,0.975641700107154,0.0395957534093719,-0.0168919236865797,-0.0278657167461529,0.178277711486978,-0.103065099300152,-0.266445524175307
657,1388,6.891586583832,-0.943937451940754,0.975541687302171,0.0410029532255779,-0.0139403717224783,-0.0284020427747869,0.232480908102405,0.105895737985925,-0.181678710014448
658,1389,6.8919299413259,-0.943948003923266,0.975413994075634,0.0407525959538002,-0.0109388969475261,-0.0293439426256807,0.116602875235794,0.0375340398126259,-0.141562088052561
659,1390,6.89225270873966,-0.943880168058154,0.975263835500028,0.0395270623411928,-0.00516322784855861,-0.0290831070654942,0.195428070541842,0.126719612712333,-0.0431154383218533
660,1391,6.89255951938993,-0.943756564150312,0.975109208558444,0.0386938812159108,0.00133674828476619,-0.0266693489498615,0.15587967033596,0.139954931622249,0.0968490923702803
661,1392,6.89286388396183,-0.943594123425946,0.974960966553492,0.0387453769515099,0.00753799787036314,-0.0227274628029439,0.10132551584819,0.206566424948862,0.232726601163079
662,1393,6.89314266691598,-0.943411603907208,0.974813468854126,0.0369134570157462,0.0132547434707426,-0.0196720497206619,0.0503683235605308,0.198113373207861,0.186282028967188
663,1394,6.89338527520332,-0.943228112138321,0.974647950304511,0.0352431758547578,0.0182588655844864,-0.0178459376788309,0.146982831640128,0.214705835993032,0.133681750742525
664,1395,6.89334428570979,-0.942736227149615,0.974566466285764,0.033855238359111,0.0209805465886584,-0.0184999498049158,0.138720437715594,0.185103750847984,0.0341013429185876
665,1396,6.89355318133797,-0.942590138760187,0.974322612131406,0.032924761595845,0.0233009995645571,-0.0180781278733968,0.129201835890031,0.260817473411076,0.111526343421705
666,1397,6.89372664369355,-0.942427845256048,0.974046128595453,0.0285910252927882,0.0260508927081232,-0.0185235449934609,0.101419801750244,0.172692576198405,0.0456976484373072
667,1398,6.8938664566868,-0.942217101014125,0.973745141446273,0.0261562569597126,0.0287707312622744,-0.0192439943134389,0.106600125791606,0.241742350047202,0.0881050648490903
668,1399,6.894074753219,-0.942050982447432,0.973341359856594,0.0258671691281381,0.0299717328484333,-0.0214314453405248,0.188712835463601,0.236572814134908,0.105926062713182
669,1400,6.89418283425438,-0.941710716780061,0.973071340015541,0.0256111725124363,0.0340311168019848,-0.0176191719721504,0.255485212339148,0.245378943547354,0.443558274784515
670,1401,6.894200872041,-0.941342066901197,0.972779566142362,0.0243904510049597,0.0360106708390815,-0.0215705259833673,0.164984549209508,0.146238064965167,-0.198301673551314
671,1402,6.89415783094553,-0.940944066266411,0.972465652353509,0.0205327714102807,0.0396221175093109,-0.0224828523004042,0.179863050097357,0.466623533523122,0.207245166910606
672,1403,6.89381606075312,-0.940736499113996,0.972116301067157,0.0163508497167131,0.0474410627547131,-0.0177594470290901,0.346431456563445,0.705781495720327,0.512810732059156
673,1404,6.89377185119314,-0.940272253298586,0.97188785172017,0.0147492195616397,0.0540182166784211,-0.0140405767252261,0.144814062716222,0.468352466901075,0.365898469828587
674,1405,6.89376295608441,-0.93973427697213,0.971699670577964,0.00752327107787926,0.0605816946551331,-0.0090967763049919,0.258384324391577,0.462287303608432,0.406299451049452
