,Frame,CoM pos x,CoM pos y,CoM pos z,CoM vel x,CoM vel y,CoM vel z,CoM acc x,CoM acc y,CoM acc z
0,795,0.124375310514675,0.654041282502477,0.948882710037164,0.100759787148394,-0.0428037381955206,-0.00362036835125145,0.0887440600770549,-0.119838694369941,0.000592004868729146
1,796,0.125516088746309,0.653671881003668,0.94880365535023,0.103531582518025,-0.0434192035102149,-0.0044721539305437,0.0468310811226269,-0.109744858967409,-0.040706259323392
2,797,0.126626904826698,0.653298331230514,0.948726657772822,0.103939269280863,-0.0446870331214506,-0.004883901722616,0.0152578499087338,-0.15957607696761,-0.0267753594436656
3,798,0.127731335276463,0.65291273165266,0.948646616679014,0.106514972087868,-0.0456843892816719,-0.0063884195124393,0.00686610537425203,-0.136981596816955,-0.102748502415649
4,799,0.128811866605253,0.652508125339349,0.948563993535224,0.10793326142895,-0.0466274981448766,-0.00735609321905134,0.070273289831235,-0.184166500719216,-0.08643629291165
5,800,0.129907102975888,0.652079755161706,0.948476285443583,0.110409479699099,-0.0485992577488144,-0.009101937937917,-0.0556611197524454,-0.174796261649976,-0.13101330413253
6,801,0.130996907037656,0.651632231128451,0.948386521202327,0.111527314019328,-0.0493318743373638,-0.00974505676473922,0.0606163934094105,-0.195779759397604,-0.0752049860641298
7,802,0.132082328772133,0.651155246912147,0.948299018311637,0.111609205936522,-0.0513000056261122,-0.00976817749246389,0.0872225676008891,-0.170108694697809,-0.0149365161807075
8,803,0.133188865776683,0.650649035845384,0.948212258872894,0.112585166413711,-0.0527457384727726,-0.0103981179624158,0.057343699311227,-0.128529837139268,-0.0551416570416843
9,804,0.134316052842892,0.650110041777722,0.948126069007858,0.113451243242513,-0.0546197518065093,-0.0100667078134986,0.0630174915083039,-0.0878834237715906,0.0265455994074787
10,805,0.135458378133902,0.649544621042418,0.948043339048124,0.114251926183921,-0.0562702691638695,-0.00972917005003327,0.100301376019114,-0.0380962638573643,0.0350709631822449
11,806,0.136598484205575,0.648960830484827,0.947966165046041,0.114498879155943,-0.0580761528588038,-0.00872595166079299,0.160219189012167,-0.0108067508971749,0.0856400626176483
12,807,0.137768842176615,0.648350534041312,0.947888148927646,0.116574952312554,-0.0602542709739184,-0.00891210581450873,0.0552402510148433,0.0247037479018243,0.0325992933322912
13,808,0.138927105866128,0.647731536231867,0.947813329718792,0.11580766332789,-0.0616153583607346,-0.00782013394972443,0.0765891990046227,-0.0296561186322653,0.094987235523103
14,809,0.140095386004037,0.647101138689841,0.947738933830885,0.11624502143494,-0.0631360873932349,-0.00770102124460699,0.0468476408215677,-0.0391304279017644,0.0479548063536342
15,810,0.141329751679448,0.646485927560383,0.947655113693795,0.119527287154718,-0.0641002909848861,-0.00865553968648652,-0.031038505703257,-0.0181039373431299,-0.0121528886876577
16,811,0.142563760435102,0.645857789803145,0.947596714029649,0.122356593209325,-0.0645504369139271,-0.00903645943976258,-0.0355967011149127,-0.0846799249444483,-0.0179826566083965
17,812,0.143823834234722,0.645221834045924,0.947539755124398,0.124578257407653,-0.0650173444568829,-0.00906692902355881,0.0335407024138057,-0.0214994626104192,0.000492194812753748
18,813,0.145095719758954,0.64456529846018,0.947482634014053,0.12740276770772,-0.0663385828350969,-0.00893618593073862,0.0969934841882202,-0.0547080773717145,0.0206857960497433
19,814,0.146373430395162,0.643878332346461,0.947425150542002,0.128157022501755,-0.06897658193818,-0.00724319542156213,0.0641600947845838,-0.102502357770543,0.162656434479296
20,815,0.147626381597744,0.643140660842501,0.94736895297935,0.126691763519329,-0.0728855446275141,-0.00527982110440229,0.0344446842872719,-0.091215768286065,0.225848667005159
21,816,0.148852836592621,0.642350913981099,0.947311805720197,0.125056554569915,-0.0767976950036163,-0.00384646304570011,0.0149701125450395,-0.079954552830537,0.208736912679493
22,817,0.150053165888444,0.641496456270759,0.94725222864499,0.123517317678184,-0.0814123989138853,-0.00270354128759976,0.00929818798160612,-0.0398910356086382,0.244677294398154
23,818,0.151220200934232,0.640608423419328,0.947191484548752,0.122750570450569,-0.0855540017109614,-0.0010637547054082,-0.0834565433592107,-0.046473951537895,0.297598866828922
24,819,0.152351449163363,0.639692417498524,0.947244756029529,0.119849289388035,-0.0884502676758733,0.0036225586394457,-0.101093882740416,0.0523315819780722,0.446135262237312
25,820,0.153466055383686,0.638769212323216,0.947305690368591,0.11804313311444,-0.090160854057289,0.00816054294195553,-0.142972111441399,0.15582140828942,0.503316237048952
26,821,0.15454661852152,0.637870591558327,0.947358665480813,0.116644086395439,-0.0908671649990347,0.01112449052535,-0.131963754182735,0.183744959914853,0.451100165850409
27,822,0.155594012036326,0.637007159725575,0.947385447246856,0.113939118629602,-0.0901748353077229,0.013056204849302,-0.129853496628633,0.243233915249273,0.43432008054464
28,823,0.156582102447188,0.636171345630609,0.947383881099931,0.110271514244718,-0.0893114256428541,0.0145703306052605,-0.121108670367634,0.245784490012195,0.446780672371962
29,824,0.157513923714724,0.635391737653438,0.947426106985492,0.10788226459551,-0.0882637581309886,0.0142415762175908,-0.0591364674670511,0.148453324272784,0.270066046456805
30,825,0.158315694186034,0.634593216103521,0.947484993099395,0.101543041398069,-0.0881607033256318,0.0131941999454694,-0.0328872660265196,0.0574448858012141,0.175187013235329
31,826,0.158858797803555,0.633881578183642,0.947319513675122,0.093756729858261,-0.0873074799540915,0.0100766322373386,-0.0913105271979878,-0.0544609115361669,-0.0770384552522421
32,827,0.159407826654305,0.632982887998314,0.947354301413667,0.0866244011061259,-0.0893041351082411,0.0055165208294577,-0.067407949040352,-0.193043744421743,-0.188659790510579
33,828,0.159914673015149,0.632122092828006,0.947385915639388,0.0758416981387304,-0.0870436212186337,-0.000724564486847343,-0.154319306162641,-0.144778302979501,-0.303623207580925
34,829,0.160300184992725,0.631289314920695,0.947400555265963,0.0654274062291878,-0.0845618074573902,-0.00767288332790006,-0.184446657012438,-0.0106784246204809,-0.42145516417259
35,830,0.16060100665472,0.630592271137316,0.9473980073806,0.0582558529713754,-0.0788579733806877,-0.0144604936737208,-0.185828266338907,0.0137478478234701,-0.529951224784485
36,831,0.160780441492896,0.629888576522744,0.947385177606466,0.0461989972468336,-0.0738341476694066,-0.01747675843997,-0.182339325731041,-0.00748533000126517,-0.405815331515119
37,832,0.160794402496622,0.62924801494598,0.947377737448403,0.0314391209422359,-0.0667134913363912,-0.0184631614684133,-0.184588502602519,0.121539677963236,-0.348495713755701
38,833,0.160629720327738,0.628679520855737,0.947371207130757,0.0161822640335837,-0.0599651462387911,-0.0197291280996692,-0.221379411587113,0.158410910159208,-0.404492555141553
39,834,0.160336737920596,0.628157188466348,0.947350282698327,0.00539815490278703,-0.053071338390655,-0.0224714045113474,-0.121296598006243,0.170985835520366,-0.490145413659068
40,835,0.159980985886412,0.627642626383467,0.947297199113877,-0.00315249181180159,-0.046157481694361,-0.0257474546704774,-0.185367971695105,0.305792438198793,-0.482446809383194
41,836,0.159630931698432,0.627172715527301,0.947221898091552,-0.0108193621573943,-0.0397980922036799,-0.026273313804817,-0.176962009526673,0.461275670802112,-0.249412678042666
42,837,0.15951961022237,0.626668900555914,0.94712940149808,-0.012518511018679,-0.0366829038256407,-0.0275610048517621,-0.11962034144081,0.309597646867822,-0.261989769260475
43,838,0.160093819668743,0.625990526207375,0.94703316906098,-0.00250156032470313,-0.0355306902975623,-0.0278981161962488,-0.204052141122534,0.559512134990116,-0.160383111133909
44,839,0.161537267008238,0.625126569928964,0.946969655501105,0.01981197877938,-0.0399825524430146,-0.0258492530361517,-0.0878544011779641,0.624685845731847,0.035486528967456
45,840,0.163562333395362,0.624239580875383,0.946980785132334,0.0454924606963342,-0.0444848286167511,-0.0204136059766664,-0.00978708165173162,0.54796709292515,0.234238103861351
46,841,0.165827519057214,0.623453722799083,0.947070384557955,0.0689492294893028,-0.0480091853292362,-0.0134487860349879,-0.112357721765122,0.422078297644905,0.352512097623189
47,842,0.168109764334996,0.622819505379768,0.947216232692082,0.0900564116792912,-0.0496924680039035,-0.00726272798490057,0.0901294831229315,0.383279489708496,0.314548286338152
48,843,0.170128116175158,0.622604086303361,0.947328226070287,0.106351428513313,-0.049029347522931,-0.00163293385560244,0.23282007680887,0.314258476966002,0.285427368344596
49,844,0.172107035719323,0.622312172095294,0.947514583108056,0.115388672200339,-0.0437342601953451,0.00185703299821096,-0.110907250403368,0.337219172739999,0.105026142238461
50,845,0.17383426152461,0.622124825654475,0.947707274809129,0.119919031937775,-0.0386757428018006,0.00582487528129971,0.2261070840896,0.17824445982401,0.162305423440656
51,846,0.17529666953209,0.622025285602715,0.947893590400035,0.121316417707801,-0.0307723454573384,0.00744430954977874,0.104154092071717,0.28811496852003,0.0639596019534547
52,847,0.176491329697323,0.621989602423421,0.948045239491746,0.12179834016049,-0.0241022226512855,0.00669169898644357,0.0613948808807372,0.27087612046358,-0.0427764578845109
53,848,0.177510133490814,0.621989256503126,0.948174815404571,0.12012743837317,-0.0166569117767046,0.00602121437510861,0.0178966556672337,0.285574772159339,-0.068274133882566
54,849,0.178352685081841,0.622003582635131,0.948285385483912,0.114802629063949,-0.0115448551515724,0.0055857081505539,0.0722935589118884,0.250858469576515,-0.0826967575190069
55,850,0.179070819501757,0.622011795910187,0.948370287022299,0.109309720384881,-0.00701345937051906,0.00401035021834819,0.0715898464817473,0.301034369687936,-0.160913829528575
56,851,0.179649860018942,0.622017469247304,0.948488518015256,0.100719314778292,-0.00361093139846082,0.00368955010857781,0.0927420334932579,0.296119011520219,-0.110384900773962
57,852,0.18013988010602,0.622024101355494,0.948537193559797,0.0938020595335838,-0.000655774242572825,0.00219048151426962,-0.00340421303017921,0.263062929747742,-0.185330510031889
58,853,0.180530612290387,0.622007721191931,0.948581776781764,0.0819222824374341,0.00143199621512374,0.00201702823981372,0.0272809530464484,0.314346470086774,-0.165471406348561
59,854,0.180839261400957,0.621975906905594,0.948617438149383,0.0698698785979602,0.00258233195451463,0.000174681369272008,-0.115695031211727,0.249235133347708,-0.247713485805324
60,855,0.181070911452321,0.621932755926466,0.948642545370036,0.0569752395555124,0.00452681306440854,-0.00155291214663016,-0.143464106022617,0.298422268331167,-0.257736616379905
61,856,0.18129825960999,0.6218871088391,0.948647214887323,0.048561392467139,0.00514047773453612,-0.0050540366021471,-0.168130110123337,0.36532247717646,-0.310642589923367
62,857,0.181513400206933,0.62184895247005,0.948644701029149,0.0403822423269107,0.00703194485918191,-0.00713720762985502,-0.0012250081739842,0.336128779928988,-0.304187936434424
63,858,0.181772618055689,0.621811656672657,0.948630714803571,0.0364670598273647,0.00911512376799035,-0.010403644244323,-0.0258466458728668,0.401599657485815,-0.372581314379105
64,859,0.18204285011163,0.621789233847589,0.948618870646282,0.0325404613211865,0.0103036064452694,-0.0114342814118523,0.10469253971421,0.25187638264017,-0.28272227750499
65,860,0.18234005431931,0.621782616551176,0.948606654324982,0.0324470032447287,0.0113852183131849,-0.0129767266079,0.153279293706693,0.192880772040219,-0.293092691201042
66,861,0.182644250277277,0.621787688213828,0.948574345682946,0.0324551706580608,0.0126981506669767,-0.0141242433961067,0.234671476316813,0.231038582228185,-0.27674972346362
67,862,0.182937928312695,0.621824339685169,0.948554367829123,0.0311992066493655,0.0138260053804303,-0.0141268145989946,0.251864434853267,0.146508399873165,-0.229166150187838
68,863,0.183170631463203,0.621890205272455,0.948542785275666,0.0274271796419224,0.0158071435503627,-0.0138582084061147,0.295271219587594,0.156927536614449,-0.260296732679364
69,864,0.183323808279291,0.62198558116162,0.948526311167147,0.0234424145712963,0.0176079153844214,-0.0147201686991723,0.213909673003415,0.202662104345861,-0.326445279996389
70,865,0.183393009647215,0.622107887547405,0.948502338276851,0.0175805987254328,0.0209381384033055,-0.0153288953690936,0.21793799385199,0.275705544957439,-0.336227429509462
71,866,0.183398484739084,0.622267925741381,0.948464279575569,0.0131492853027783,0.0244025187261304,-0.0168530563277717,0.202190748457425,0.378022057713278,-0.371612908413854
72,867,0.18337453120735,0.622484164542879,0.948406511929639,0.0111826309838519,0.0292232058860237,-0.0192627762360409,0.219421289848721,0.407807133518617,-0.424348903699721
73,868,0.183334773934051,0.622770757260578,0.948329896369808,0.0101362112715854,0.0334845747842488,-0.0212213077551141,0.317259485293797,0.37492466715889,-0.392839672627066
74,869,0.183314428455414,0.623126713001189,0.948232748774579,0.0111008157890624,0.0372899001233571,-0.0237523794337734,0.333071519503791,0.314784006029301,-0.396753215608936
75,870,0.183353999427676,0.623543615000587,0.948117205507393,0.0128877638064001,0.0418454818107598,-0.0260714440641903,0.359268129525937,0.226855890444745,-0.394767404048349
76,871,0.183413743829884,0.624009659110666,0.947972992463502,0.0154767625111408,0.0453854921069519,-0.0294571865732518,0.279188664355187,0.162546543056173,-0.448667781255924
77,872,0.18348445573957,0.624515157149965,0.947796736484437,0.0173260734206933,0.0490011892104503,-0.0333221309497421,0.208098931765221,0.0902362349750021,-0.494816783468993
78,873,0.183511433276157,0.625159085431195,0.94780197642061,0.0157262593963041,0.0530709561738301,-0.036271567409511,0.215107766957656,0.0307921853507276,-0.474652378618452
79,874,0.183616868118709,0.625916464396198,0.947834450344253,0.0171775404354214,0.0617006025599071,-0.0352582066315851,0.185293721601149,0.273344036849817,-0.435666501150194
80,875,0.183580157837799,0.626457305916347,0.947676761587885,0.0161458124182981,0.0675045989458887,-0.0340581743470946,0.111971019218173,0.0816196321375533,-0.37753409286331
81,876,0.184017420074944,0.627642237256051,0.947238037130621,0.0189021169392178,0.0786391032449017,-0.0335608758390315,0.087694498546231,0.162136954511562,-0.0407610743242458
82,877,0.184261171939586,0.628511183776673,0.946954250097585,0.0167828028725514,0.084657755122787,-0.0303746841738419,-0.194252609952049,0.225575635066093,0.1481701064313
83,878,0.1847217255728,0.629492838684539,0.946759513500745,0.0220612311194091,0.0879261964980136,-0.0221864249605056,0.0495059826786657,0.286490173840355,0.590171290697431
84,879,0.185229265661456,0.630352865923035,0.946696430232897,0.025872490093133,0.087366781242908,-0.0103569482987732,-0.0984620001019383,0.197668531884778,0.849105266327846
85,880,0.185860909579735,0.631223544676818,0.946544448840384,0.0289439173081732,0.0848169499702812,-0.0020354970341092,-0.21846423497735,0.188555054362846,0.991021308620925
86,881,0.186494271539376,0.632040160578733,0.9464639789363,0.0311115611382161,0.080071553833274,0.00683072748445343,-0.23423164469402,0.0493509862171938,1.04709291068136
87,882,0.187139427872666,0.632851300138371,0.946442995415359,0.0371708101069594,0.0742429459572532,0.0142652216081223,-0.210508170394824,-0.104850919983102,0.939575271695641
88,883,0.187733945820167,0.633602509985667,0.946458632550845,0.0435370241576239,0.0679345056420894,0.0197785776259019,-0.132458650094672,-0.254872976051532,0.758149533367159
89,884,0.188232256933838,0.634315670555199,0.94647480224214,0.0494162290496839,0.0612759425691618,0.0222313788644214,-0.118914154574172,-0.445577040902548,0.508423658565457
90,885,0.188586816119406,0.634994548932845,0.946457621612295,0.053315608247093,0.0566845061019272,0.0209303216026078,-0.084193856459392,-0.438327737218499,0.195892708244201
91,886,0.188802000572421,0.635657630176275,0.946389028101145,0.0543923177204764,0.0535840419492555,0.0174456703165265,0.00374579825672362,-0.380721205603869,0.0119096973385995
92,887,0.1889068046516,0.636289098190587,0.946275883896459,0.0505247755241642,0.0533507925223852,0.0128869811137671,0.0149955814988417,-0.373635473906683,-0.133430681286397
93,888,0.188969434032267,0.63685981895555,0.9461264161075,0.0457029548313129,0.0531260297972546,0.00758999239125593,-0.023124756537643,-0.141925704108073,-0.179962417771241
94,889,0.189027335319205,0.637386083434882,0.94596043406187,0.0385796629371266,0.0532875180346747,0.00342130262395563,-0.0838367284493617,-0.0416929660863034,-0.135694024020025
95,890,0.189063537110638,0.637833387149514,0.945764585381786,0.0340478179147233,0.0550028238896766,0.000218115713535442,-0.227601656194897,0.0195930382268248,-0.101920645314086
96,891,0.189216690861781,0.638366267025162,0.945617758021171,0.0273200394979305,0.0552811288611129,-0.00223502315832746,-0.253889322807561,0.0753881088788826,-0.0744079533574508
97,892,0.189402037609583,0.638874184162925,0.945478078390547,0.0226569435153289,0.0533472670454751,-0.00424010577827576,-0.165020666537965,-0.12042684635956,-0.0552633994232793
98,893,0.189643581895359,0.639352141864447,0.945352183544746,0.0199848699688421,0.0518661709201509,-0.00548926641990087,-0.187403188942179,-0.0424588309696252,-0.0489624914366686
99,894,0.18995760174767,0.639825867677189,0.945233900711193,0.0211368138417679,0.0512219447306829,-0.00656958714407099,-0.115392553306552,0.0450497584026942,-0.0499036087582166
100,895,0.190358857498212,0.640290753365956,0.945116126954009,0.0243816135842491,0.0495864859105265,-0.00763887288231745,-0.185514932180826,0.11016467762844,-0.0370515017014375
101,896,0.190807442707718,0.640797086703334,0.945004674360732,0.0271319131143746,0.0507949595092738,-0.00743940179752464,-0.115634381829551,0.151893883421241,-0.00106473387849251
102,897,0.191303972743046,0.641360468272578,0.9449189512141,0.0314408810741814,0.0522322964326075,-0.00705328662041595,-0.084427901617624,0.163027767640869,-0.00364723717302088
103,898,0.191821563292877,0.641977586223922,0.944832107844719,0.0344660052875399,0.0528966276836244,-0.00587576675889496,0.0540087782420987,0.105951000852299,0.0542489537745918
104,899,0.192371970949117,0.642646125233894,0.944742214110556,0.0388263694354992,0.0538877988724345,-0.00505723929775073,0.0844272455731033,0.0593689223768814,0.058614022711626
105,900,0.192954092329687,0.643346003527634,0.94464355143558,0.0447166787962593,0.0541659092987814,-0.0046818854223611,0.206072138470835,-0.0188233848920523,0.0577714589439154
106,901,0.193581189938504,0.644069203715708,0.944477527090996,0.0504659535536038,0.0559741486706328,-0.00517711458419808,0.238324240544433,-0.170431157865312,0.0379066597882187
107,902,0.19425035233434,0.644761385930832,0.944293899221977,0.0560283466781337,0.0565571730153037,-0.00632892861493064,0.226393768775392,-0.124260126188667,0.0172755804866515
108,903,0.195126918230123,0.645504872766963,0.94396503070191,0.0586807900221002,0.0571587851287828,-0.00779631346512628,0.219126708100173,-0.0793998265625669,-0.0495092451576446
109,904,0.195746203836911,0.646036550937631,0.943655619240898,0.0623340443690166,0.0552066578054426,-0.00999102183339688,0.304018286644855,-0.138689161796926,-0.0556313574143933
110,905,0.196355769858205,0.646520992101267,0.943372383407564,0.0633688692618976,0.0541117495789955,-0.0127325734983744,0.191872588461416,-0.0537100741055886,-0.0931175041978671
111,906,0.196946189147872,0.646945401273518,0.943104666556326,0.0634771797166878,0.0515611596920747,-0.0146364059816206,0.213653876840655,-0.0809874046975396,-0.060235760358363
112,907,0.197517235881187,0.647328077997714,0.942860533317893,0.0643346635715871,0.0478357085914502,-0.0158788558776184,0.220427107579765,-0.0661692743189254,-0.0490288101995197
113,908,0.198095805822323,0.647695454328426,0.942637769508742,0.0662291093235109,0.0452013645264396,-0.0162214628041849,0.206792590437888,-0.0731788536570447,-0.0306368890610413
114,909,0.198683561693529,0.648117916071599,0.942432795248203,0.0673303171192522,0.0450081284059794,-0.015735697431272,0.14410421274899,0.0209186889903001,0.0125495489869361
115,910,0.199257479050022,0.64863462433067,0.942247852298083,0.0674826458514595,0.0463426346415737,-0.0147345845957432,0.177870745607303,-0.00422988360560906,0.0469922187974052
116,911,0.199817625656982,0.64924341812117,0.942077388009746,0.0674825533824778,0.0504551063080622,-0.0139338962076131,0.231364645934257,0.0210987467565049,0.025070412360549
117,912,0.200409443214553,0.649900224307378,0.941909737611207,0.0692139232679616,0.0530945544120416,-0.0139230809182185,0.21075217184595,0.00770200814487055,-0.00655025712577076
118,913,0.201031638092645,0.650604971078838,0.941746328096939,0.0698948457262596,0.0574249300467151,-0.0130347632322055,0.266211777228845,0.0400874067884794,0.0384668045830263
119,914,0.201707863010207,0.651333596976459,0.941584408813028,0.0719894838042924,0.060425783270951,-0.0122863693035943,0.251277611463102,0.0642171339541621,0.0649956754696401
120,915,0.202420065472952,0.652084534808451,0.941359512630356,0.0727714623945007,0.0646980482864737,-0.0122481068072366,0.26954858767983,0.0916634186728118,0.0591863138845615
121,916,0.203158943930789,0.652853036602862,0.941132743813435,0.0739419713746327,0.0681009122140054,-0.0123193628498019,0.249825356148367,0.115237263907295,0.0781035151006995
122,917,0.203905345693842,0.653660686227867,0.940891398934647,0.0740276827151148,0.0722050114030821,-0.0119243079906687,0.203465477035164,0.1323745563874,0.0759453125647974
123,918,0.204638377166608,0.654471627112939,0.94068384285005,0.0745416039128431,0.0751651532968048,-0.0116482008906465,0.190574355227931,0.142365223730648,0.087368020846183
124,919,0.205365576426141,0.655319668028068,0.940491547336491,0.0748632127435674,0.079444682835403,-0.0108246119844711,0.186114768191621,0.175203220541172,0.110174702942849
125,920,0.206110726626455,0.656186375397069,0.940311884732833,0.0766050419801419,0.0821350048937222,-0.0106829604367735,0.128358953167879,0.13240573682268,0.072210747987669
126,921,0.206864028219952,0.657059908559675,0.940144571949635,0.0775929738137542,0.0839732923469093,-0.0101535338317217,0.132977424928939,0.0961200060610498,0.0758309149176333
127,922,0.207642396407233,0.657948286985178,0.939986277455593,0.0793814669504917,0.0865161978759619,-0.00993341585535448,0.0663038867930863,0.10342961928901,0.0379051414919874
128,923,0.208453798426044,0.658841562908671,0.939741742155466,0.0818668210741997,0.087329950529074,-0.011188677202163,0.100722955333352,0.10766242615937,0.0202511436860436
129,924,0.209309180557027,0.659741272251365,0.939493278697426,0.0842289553065322,0.0880598766841598,-0.0122075557857188,0.0593290822864372,0.0641441414767019,0.0355513418163532
130,925,0.210208555771777,0.660633096232287,0.939223207880864,0.0871376006403714,0.0887847621690271,-0.013092520320014,0.0683884018494299,0.00555408167729735,0.0511624309222385
131,926,0.211148413705782,0.66151613853385,0.938954587848336,0.0906708686354356,0.0888977034882239,-0.0143959145019282,0.0807618508852834,-0.0396144529546069,0.00833451623453075
132,927,0.212135474107827,0.662376601006843,0.938691090700507,0.0955153666564835,0.0884428956169609,-0.0157779150807265,0.0783822590651429,-0.0266296125231688,-0.0171657604100126
133,928,0.213146186662956,0.663239344553133,0.938443907677786,0.0985102427318358,0.0881275185798673,-0.016057821969321,0.144889147798433,-0.0603478680907455,0.0201618320285532
134,929,0.214211842091615,0.664095248185845,0.938246914124975,0.101943554505611,0.0884014196832328,-0.0175884583092076,0.0386670718046092,0.0434449423695782,-0.0525814425915226
135,930,0.21518082671019,0.664978597079307,0.938033827925961,0.102622112897585,0.0881740761583764,-0.017267436884193,0.143256645693498,0.00182709242916445,0.0417962299440993
136,931,0.216161583728825,0.665901130893057,0.937930137513517,0.10354433930694,0.0897022989226494,-0.0169132405690117,-0.068215797936925,0.0210931840880157,-0.042777989441523
137,932,0.217122895585132,0.66684347745529,0.937759305474946,0.102512434585377,0.0921099415352391,-0.0175571822295583,-0.0364863766303902,0.0892356512627686,0.0444071385323074
138,933,0.218065472887188,0.6678544210885,0.937618671692468,0.10112848442742,0.0951649742723872,-0.0172824522313705,-0.0243166979984179,0.0772730295555158,0.0643718664242326
139,934,0.219015172573449,0.668902644659304,0.937527719679728,0.100717827359473,0.0978164701953829,-0.0160055475450267,-0.0609955682783188,0.0622519257433356,0.0672035696281708
140,935,0.219986601015293,0.670000043312812,0.937483347756976,0.101436584540621,0.100838136469039,-0.0141858265075958,0.0035861658754547,0.0603851544401562,0.0555908211392082
141,936,0.220983843277774,0.671119759456291,0.937477215747139,0.102098824684691,0.103072761056794,-0.012192267175772,-0.0784561388275211,0.0792762870744599,0.0638053858213276
142,937,0.221992172903611,0.672270552030832,0.937501037133299,0.102203543063144,0.106391926902108,-0.00933050207188384,-0.0685727751303174,0.0233681643131777,0.108536360773134
143,938,0.2229806178531,0.673430020699506,0.937554831363714,0.100623598287169,0.108982288924336,-0.00575565323641932,-0.00599340610619544,-0.0172152792582656,0.165528008412603
144,939,0.223961031744783,0.674581910097105,0.937632251915709,0.10002160874732,0.110998793324503,-0.00282178643631408,-0.0511450585376898,-0.0115368370171206,0.143883987371275
145,940,0.224945958664405,0.675720759554173,0.937728299093807,0.100181655199308,0.112447264146654,0.000305035878925341,-0.0453296766035775,-0.0620837254525219,0.167981684733631
146,941,0.225959566473486,0.676840771222373,0.93783592836195,0.100500384800641,0.113061481765327,0.00349835866094363,-0.0642439083113856,-0.0632712051997654,0.200127067047573
147,942,0.227027763553779,0.67792864733705,0.937948950754054,0.102646647102725,0.112342869589007,0.00542561982384917,-0.0993174798030739,-0.0332390700519491,0.15127148552553
148,943,0.228146275189636,0.679010376145393,0.938067433077877,0.104369203895296,0.112479580145801,0.00776761622827034,-0.0811149320547891,-0.0750180011881662,0.167299599793343
149,944,0.229335586529076,0.6801148174102,0.938179826859956,0.104856347995188,0.111784655754639,0.00960448706666511,-0.0781066777471026,-0.0532832586927892,0.139606514045777
150,945,0.230517793854078,0.681228051874629,0.938304876024893,0.106558564170317,0.112435177623843,0.0110717790834163,-0.105181042563512,-0.019796723292478,0.135240351903446
151,946,0.231756248533314,0.682397285144207,0.938512411992846,0.11118089835906,0.115559271819192,0.0121627909349793,-0.141025195764186,0.0611533358907791,0.0840986952237241
152,947,0.233046349938264,0.68363556282604,0.938788752841944,0.116176972703744,0.119428451390346,0.0135328250920913,-0.112364338889275,0.128848020965785,0.072893628583536
153,948,0.234360767127552,0.684931553162133,0.939084124187065,0.120017014452476,0.122973463190369,0.0148248235681856,-0.0880340970380607,0.144514874284374,0.0601739665880093
154,949,0.235661785709502,0.686258285665771,0.939405786940417,0.122098351227075,0.125391355426884,0.0162301859188765,-0.0161373483377983,0.0413515244153433,0.0412699788794708
155,950,0.236921483628465,0.68758263066156,0.939758118443038,0.121850297215615,0.125945438418587,0.0180003337308929,0.0439631892643376,-0.0604044918589991,0.0419951656060115
156,951,0.238106789372135,0.688915858945951,0.940149006295385,0.121469204404738,0.125577682921963,0.0191407035246766,0.0236548449409084,-0.146663982859249,-0.0217931217306261
157,952,0.239255178282703,0.690240511008505,0.94061439696193,0.119702628051716,0.126045137537914,0.0223293000983199,0.0313949647977035,-0.15642577692784,0.0507269130951195
158,953,0.240326243249062,0.691572218733124,0.941165599121875,0.11839084948356,0.127580650361296,0.0243833680663921,-0.0364797526254597,-0.14850424137755,-0.0361920513659901
159,954,0.241362233324875,0.692934277290894,0.941731989534507,0.115981077098695,0.128648330925411,0.0271797612902273,0.0744248576984825,-0.0828846926487886,-0.018135891842946
160,955,0.242187057694812,0.694344844177878,0.942505682485114,0.110274719010098,0.126910120816195,0.0305473527738504,-0.0692695610308011,-0.0913958672000923,-0.0317526744687246
161,956,0.243141870838906,0.695658650666553,0.943165694231508,0.106652728184177,0.125664596232391,0.0333308286789213,-0.055548889976562,-0.147074584243418,-0.051185500586013
162,957,0.244099530111218,0.696926790178749,0.943842062680752,0.101470164203493,0.121271428211165,0.0363006109747742,0.0230685615442506,-0.181200355106087,-0.0801568561623146
163,958,0.245105047155789,0.698144647322473,0.944531991342494,0.100248900027544,0.117202427813465,0.0375356295826521,-0.0727768765080348,-0.195066860020344,-0.19353586666653
164,959,0.246187172078789,0.699306471163858,0.945215304096105,0.102228294886114,0.113121732332223,0.0379733491461593,-0.146830004544737,-0.235331611586281,-0.202395123680586
165,960,0.247344902214234,0.700394349307627,0.945863031873635,0.105781214688278,0.10805963766068,0.0374027604799295,-0.255668722261495,-0.193703599732883,-0.181671684133989
166,961,0.248514816796483,0.701406187018677,0.946460670633767,0.106689889227027,0.101493390228439,0.0370314678988818,-0.168818969082865,-0.319139506018568,-0.125427207824782
167,962,0.249675042252442,0.70230981847559,0.946995216708941,0.105810420287215,0.0943010822989535,0.0362683354452685,-0.116018608073764,-0.330050057798636,-0.0897804569057265
168,963,0.250828791068841,0.70312078250892,0.947447386164455,0.106195804619171,0.0866466497266174,0.0345471294913675,-0.120876566296576,-0.326436972803488,-0.067542334341065
169,964,0.252023415211599,0.703798635975061,0.945886907355472,0.106939619063386,0.0791486343605582,0.02510724013848,-0.127738426556494,-0.305477556039078,0.00250380264750236
170,965,0.253331309131237,0.704271098200888,0.944650729293825,0.110625927885731,0.0697576858403098,0.0163913535079723,-0.0890523771607228,-0.202257343213011,0.0149777186191106
171,966,0.254904853459249,0.704224145102189,0.943505457679796,0.116803681693749,0.0537154192529411,0.00869118989826189,-0.0928194564112865,-0.194584667404594,0.0561574006100095
172,967,0.256779342008422,0.703468672949291,0.942331644928721,0.127336790968528,0.028419958538123,0.000248509905885531,-0.0488564717158426,-0.139559236633774,0.0506455085126913
173,968,0.258760027540974,0.702190144223695,0.941115159506787,0.137446067104976,0.00102417378591616,-0.00817110540791809,-0.0385589105823102,-0.149668648473948,0.0636787955487873
174,969,0.260689804963247,0.700786583677613,0.939666725068088,0.145043716817072,-0.0241222453034857,-0.0205400928548566,0.0264948941224813,-0.160042310245754,0.0532219482035785
175,970,0.262411430896729,0.699427865657417,0.938227558708417,0.146746409047701,-0.0451556540948372,-0.0319628671779775,0.0384722647640654,-0.149064198778918,0.0112024682134243
176,971,0.263954318167959,0.698256378716199,0.936822518082839,0.14772825280314,-0.0587670661141958,-0.0423825881737554,0.00373913285745984,-0.130600365767581,-0.0416685184009263
177,972,0.265366039915589,0.697322878448482,0.935491706960613,0.147856154167879,-0.0666087431379923,-0.0506574662354682,0.0726170354065731,-0.0986375773215531,-0.0256028927622718
178,973,0.266594700872784,0.696700806865685,0.934272456905701,0.14488133936485,-0.0679409155917809,-0.0564779103671,0.104888511007123,-0.0209735517459753,0.0275461511879298
179,974,0.267766298064124,0.696325637806392,0.933410975999176,0.142207682170577,-0.0659583567172959,-0.0593263579529862,0.0728834825147856,-0.122443270613123,-0.0052288173815258
180,975,0.268874408813606,0.696152326829539,0.932582429014242,0.139947366235351,-0.061469928025849,-0.0615036129697761,0.0692729778493681,-0.183361699724033,-0.00975169057653565
181,976,0.269907965286706,0.696117824454896,0.931778752374568,0.135688909879311,-0.054452828609105,-0.0634795948387002,0.0574642664981186,-0.15370726911737,0.00522121911163432
182,977,0.270866578537509,0.696205502821159,0.931088420899277,0.130730781324816,-0.0460707844751135,-0.0647184299044542,0.124793365861276,-0.101500840045028,-0.0364568437973839
183,978,0.271775065984882,0.69639615324959,0.930511082489687,0.125742363774588,-0.0374601028622913,-0.0645213300498831,0.119901470012278,-0.0567252844592321,-0.0267237789902013
184,979,0.272630550218395,0.696710233020373,0.930056234772119,0.118934551170629,-0.0277701627224832,-0.062012061449568,0.193969530774255,-0.0824883521360164,0.0291340321281495
185,980,0.273477504697858,0.697124688674221,0.929726206540285,0.112144276210958,-0.0181986096639743,-0.0574798426855577,0.229888166961701,-0.0594249381665931,0.0972209369028874
186,981,0.274356187681339,0.697611873603928,0.929505962891219,0.107645437415269,-0.0100908378115686,-0.0531144157871401,0.188153713619783,-0.131626717523032,0.0633253184726742
187,982,0.275213192398966,0.698447072125891,0.929521289278575,0.104407497317515,-0.00286074908221074,-0.0482897046879355,0.113121603479251,-0.142558718530758,0.0615898770841786
188,983,0.276145616207898,0.699083408512973,0.929495666759717,0.103626163149182,0.00574117662017337,-0.0429934803070208,0.101758789327723,-0.122657596307347,0.0599871995948207
189,984,0.277078119987318,0.69978479801949,0.929541315232438,0.100995357768159,0.0153736527751523,-0.0356884151734283,0.0388466264761382,-0.290810392282846,0.0670465281395054
190,985,0.278003162585278,0.700531362908167,0.929649970683111,0.0986214884005197,0.0260572423884949,-0.0288971172401766,-0.0322423540102474,-0.164976580487543,-0.0115650934918533
191,986,0.278951603021942,0.701252550150147,0.929802356678726,0.0958955074807872,0.0339528441150328,-0.0217305831494819,0.00234000010146954,-0.153329166699228,0.0555004387421522
192,987,0.279947537885721,0.701869631944694,0.929977545632968,0.0948594122743168,0.0380001579071629,-0.0164212205339009,-0.0196697711095551,-0.116479592155704,-0.00802119623284444
193,988,0.280983653766534,0.702402937673599,0.930157784027475,0.095156728379803,0.0386215226675804,-0.0121727902897366,0.0240120593613666,-0.108016017086231,-0.0161795610092348
194,989,0.282049490151852,0.702876546523244,0.930335491415025,0.096001089908533,0.037343680884776,-0.00880974989049341,0.00555742610057137,-0.17698882222659,-0.0233364348060705
195,990,0.283140782281219,0.703320743597228,0.930506183940656,0.0979467079637771,0.0354877250789646,-0.00626154254534765,0.0468494143575393,-0.194956895551084,-0.0438116965481982
196,991,0.284252285009665,0.703721042395655,0.930674406775494,0.0989243851217347,0.0338234339067209,-0.00370120827253098,0.130991141153589,-0.167357660738733,-0.0463561279840166
197,992,0.285369610285448,0.704055883220752,0.930840406027238,0.0997965745825825,0.0305476888178932,-0.00201747044079177,0.161207556701458,-0.196138334790756,-0.0958513456683055
198,993,0.286639635504135,0.704162190391937,0.931024587387409,0.0974823991113916,0.0276911194543434,-0.000245524241179797,0.225862680036524,-0.218879475211044,-0.0998564792682178
199,994,0.287665460719362,0.704396632020695,0.931185380039106,0.0986471368307364,0.0246510070593372,-0.000317123278543217,0.0999345585252444,-0.164748305444376,-0.160639879477027
200,995,0.288698415101719,0.704570771773426,0.931339571013035,0.100650026619102,0.0184956243662105,0.000719271456968897,0.304699847440828,-0.114189746884467,-0.120221286558449
201,996,0.2897893950663,0.704698701011563,0.931482241862368,0.104246049572587,0.0127225916518112,0.000842795655122089,0.292979504067395,-0.0573714851974811,-0.170446658992656
202,997,0.290927853559841,0.704817360090692,0.931610154619188,0.108042998170707,0.00898489419687878,0.000336121513481588,0.228782069555392,-0.0703033720136292,-0.205780413568921
203,998,0.292110441863616,0.704949253617172,0.931721527639404,0.111543323762774,0.00713809304978901,-4.24092451003733e-05,0.281591009051677,-0.0785020703858855,-0.196980912215711
204,999,0.293341613696589,0.705087950142643,0.931818051742422,0.115292469931952,0.00518201942724191,-0.000545831133776455,0.375309581838963,-0.0886572520447214,-0.198905087735064
205,1000,0.294640279989828,0.705240886932923,0.931894892627525,0.120570194801984,0.00430865765841435,-0.00148740191452008,0.332106567706142,-0.0716631430348702,-0.194335997706564
206,1001,0.295990197152131,0.705384539761681,0.931946289411281,0.126019512658171,0.00283034537478703,-0.00250063763244755,0.42172627205394,-0.137513215277234,-0.194750677391363
207,1002,0.297396783390366,0.705518374258168,0.931981014358399,0.130965227316334,0.00184383735271516,-0.00392239192890569,0.384922050898428,-0.132815792511717,-0.218022585221869
208,1003,0.298847996783452,0.705645280940255,0.932001239798759,0.134870605981501,-0.000108014656523855,-0.00487174458365319,0.329925552254517,-0.263377949479287,-0.187935812148078
209,1004,0.300330426436196,0.705747470993589,0.932009293979288,0.138792709024253,-0.00194306474964421,-0.00609712311564098,0.345708576145854,-0.216594347737292,-0.195684327143832
210,1005,0.301854139102569,0.705838025251818,0.932007547809404,0.143106674656576,-0.00310592923723063,-0.00646760119764789,0.391760814899941,-0.170779804022125,-0.12015766115485
211,1006,0.303266071255825,0.705881553653408,0.932130633036948,0.144644154357367,-0.00464301920062145,-0.00543596399954812,0.420950771335757,-0.188848936380898,-0.162350893639826
212,1007,0.305228991547465,0.705966847529951,0.932092519671572,0.15370146907614,-0.00636916685006627,-0.00667739841099429,0.394598049673167,-0.188078232513371,-0.168969030976252
213,1008,0.306473384445664,0.705822440585326,0.932033639252041,0.153718995095535,-0.00998109202595577,-0.00773379368827222,0.365472169146405,-0.194823585578441,-0.150883535461334
214,1009,0.307922073653968,0.705666450680283,0.931959382257286,0.153020737451447,-0.0140289179299955,-0.00826040031896354,0.435493499928817,-0.175618299611225,-0.136095392841432
215,1010,0.309178469142079,0.705420609263146,0.931880309113977,0.150335350443026,-0.0187020857525932,-0.00951029643690633,0.42365520368533,-0.148873989593851,-0.191593978316095
216,1011,0.310365733093397,0.705143475378645,0.931798746129659,0.145503051999595,-0.022555896598965,-0.010270087251489,0.472228918566017,-0.134790207899476,-0.195404648271125
217,1012,0.31145493543376,0.704842760043765,0.931712915333634,0.141029418420463,-0.0257890519614081,-0.0118830593542413,0.438789431075156,-0.112316354850173,-0.229809573587756
218,1013,0.312520596617489,0.704552628256418,0.931639946250521,0.136102254900899,-0.0291815279455099,-0.0125475478686258,0.32882357776679,-0.207709600380271,-0.129843648901031
219,1014,0.313514191764044,0.704232628104443,0.931607174931589,0.129465176452786,-0.0319814753903242,-0.0119865438833201,0.304759183482241,-0.312171348066738,-0.131703716282283
220,1015,0.314490426594096,0.703934399085092,0.93158653992119,0.123491009041774,-0.0332762843464223,-0.0101316412444141,0.300252085375444,-0.353233080428425,0.0297898935734938
221,1016,0.315492462335592,0.703577210918493,0.931592247872737,0.119778331695645,-0.0337115653232368,-0.00661605667322754,0.282297141452105,-0.208041215041218,0.217925083870208
222,1017,0.316638200548644,0.703279580640812,0.932944988154993,0.119532316082565,-0.0316116557379894,0.00266079754384108,0.183954378145425,-0.112083600671005,0.257412468143474
223,1018,0.317878938406188,0.703005873313313,0.934550196843548,0.120006495934571,-0.0286694761119794,0.0141776334738743,0.172421713688331,-0.0239867742083839,0.379452290788779
224,1019,0.319258008849963,0.702809040567834,0.935586900681644,0.123270850260632,-0.024146478850517,0.0226520937332981,0.156882076750997,0.104993560960002,0.377456003743864
225,1020,0.320661477967354,0.702613339361991,0.936879031600536,0.126117068518565,-0.0206861766762683,0.0306382126164177,0.0760144023696615,0.154296285482409,0.349287033137872
226,1021,0.322066107024034,0.702444917085092,0.938014267178859,0.127365265348739,-0.0173424879266762,0.0366354419225359,0.131640807815777,0.0583237251675403,0.263075215898733
227,1022,0.323443697082794,0.70226800618875,0.939022043390675,0.129385821279902,-0.0146943636279928,0.039836481724216,0.136355732103953,0.0152442505899159,0.148709184586833
228,1023,0.324806328796714,0.702089424129855,0.939914060914641,0.131103297943526,-0.0129898817229446,0.0406664458571514,0.110538828695592,0.0473826477362762,0.0469300713589861
229,1024,0.326131200385432,0.701897200889232,0.940706892124169,0.131340565853045,-0.0134489268972342,0.041945028649776,0.176961782816092,0.127761477599219,0.139371144638195
230,1025,0.327482952465743,0.701699348123171,0.941403614796751,0.133902778091422,-0.0152759660702135,0.0404193715288916,0.0691194579404802,0.0983968956096196,0.0422130405674813
231,1026,0.32946489308956,0.702269549088986,0.941930705326126,0.146285469515139,-0.00396324771480015,0.0386832075470092,0.0144806513704447,0.0956117111998886,-0.0205516169122652
232,1027,0.331646667350548,0.703080090046277,0.94246255358081,0.159434971119307,0.00891649106344063,0.0368478372694972,-0.0152606304518877,-0.0130139918276671,-0.0300855769194476
233,1028,0.333037861506748,0.702884085214525,0.943061774582863,0.158580350067483,0.00438501290418784,0.0349217485169397,-0.0541237678893889,-0.00283613710241868,-0.0787206027980264
234,1029,0.334939456028391,0.703295126853167,0.943551659777964,0.163875617540589,0.00667469010142348,0.032125829881621,-0.0918851368722166,-0.0685223905155594,-0.084678388895868
235,1030,0.336485272428749,0.70320069277372,0.943949427916565,0.163151585315497,0.00251667038109913,0.0286358142861136,-0.203120130165422,-0.053679281828396,-0.0932542685332106
236,1031,0.338122887047653,0.703180025110164,0.944272751001974,0.162897784879976,0.000936455340884425,0.025095964962641,-0.274516773966725,-0.22406644921073,-0.0974774371791247
237,1032,0.339652626786835,0.702959669352919,0.944538996798912,0.16029499828803,-0.00461237146492857,0.0227274193705066,-0.372116535241314,-0.110083485080822,0.0408741952120172
238,1033,0.341211207447758,0.702688531995842,0.944760332558315,0.158932655462084,-0.0103820086094827,0.0199323714622806,-0.406029211144943,-0.0710395367339601,0.0474014348265457
239,1034,0.342651746563773,0.702228995855532,0.94495344922189,0.155184708619387,-0.0177020247920365,0.0181481092816826,-0.362648344292529,-0.0542471696260429,0.105660548611689
240,1035,0.344001372832782,0.701657284041388,0.945134281877556,0.149389112679455,-0.0252538215579163,0.0176265422900783,-0.45019188358687,-0.103574017591571,0.181683164623077
241,1036,0.345251309760258,0.700972928889583,0.945309297807878,0.14220228230232,-0.034177094940498,0.0184720941898664,-0.405220162291498,-0.173566550462296,0.275788019660494
242,1037,0.346451104423035,0.700214496632626,0.945475584109592,0.135462183510156,-0.0440337781487613,0.0196285634780295,-0.430062193505791,-0.143058409394801,0.330479639904571
243,1038,0.347644002527841,0.699449402780061,0.945627139398429,0.130402439170221,-0.0519917239624476,0.0206313812469973,-0.343878586415135,-0.154393767321006,0.334308179324312
244,1039,0.348897415741817,0.698728507514832,0.945756418059403,0.128609138025294,-0.0581967206671402,0.0204393076482162,-0.369435288518656,-0.210131343703732,0.285208300259413
245,1040,0.350241980232019,0.698076225955666,0.945866965258573,0.127944625403311,-0.0609991088532889,0.02118161946364,-0.364812251699059,-0.196556477567784,0.369915013064783
246,1041,0.351714011836577,0.697498455091561,0.945960509875536,0.1301754758201,-0.0616850208589256,0.0214162739022277,-0.448156995665204,-0.0827526108985642,0.375533483064989
247,1042,0.353326170394024,0.69701118583784,0.946080012097939,0.134965317389339,-0.0616373128106005,0.0217611335674244,-0.342822322602371,-0.0549084289142138,0.378582921980881
248,1043,0.35500784804985,0.696565270898347,0.94626764561204,0.138490438391382,-0.0602116046163706,0.0221987320430444,-0.235264121494274,-0.00753811863048591,0.327028602742967
249,1044,0.356735932050098,0.696150735757854,0.94644838964347,0.140801172638762,-0.0589280228250088,0.0229207015327776,-0.101495249450069,0.0644995159439457,0.325655303391335
250,1045,0.358541556227364,0.695732486192955,0.946609788293431,0.146831464815779,-0.0570385607996491,0.0213406019904325,-0.310065418827508,0.111749285474421,0.210346777372746
251,1046,0.360441877393555,0.695297419102905,0.946753046296271,0.154807098331163,-0.0541849456985063,0.0178204893338442,-0.380895910340149,0.114041561042259,0.0532588785626299
252,1047,0.362380371074051,0.694820374286991,0.946850446054501,0.161275686928129,-0.0545155018473458,0.0143201484730262,-0.356587470691771,0.103635652807011,0.0179763228758281
253,1048,0.364316246425586,0.694297398012915,0.946917396138943,0.165297936661649,-0.0554431975457981,0.0109272737832618,-0.259512697423482,0.0794700613402758,-0.0485993599334295
254,1049,0.366233662917983,0.693711917128654,0.946959722057342,0.170277654643275,-0.0572443876370289,0.0070546820914594,-0.189297668309246,0.0356701826629104,-0.110229550188669
255,1050,0.368083547031437,0.693097034460731,0.946890818066456,0.172400491723761,-0.0578880275982109,0.00406187069175166,-0.129145713030392,-0.046915028599176,-0.101602877356199
256,1051,0.369841202445546,0.692473137684527,0.946855478639032,0.171917491514842,-0.0576215049487216,0.0023636257550391,0.0591296494246104,-0.1246609606099,-0.0767593743668832
257,1052,0.371487601251088,0.69184756438797,0.946852993306668,0.16953788679391,-0.0566369805676087,0.0013774979392648,0.131583719141772,-0.0653708649376662,-0.0710944522756443
258,1053,0.373067796468832,0.691258121784917,0.946874413419789,0.16596052947736,-0.054977861034297,-0.000272393903770686,0.0251225589886163,0.106567769220949,-0.131075987775802
259,1054,0.374560526460339,0.690665891662225,0.946906533418116,0.163621905367003,-0.0523806920851018,-0.00305333283936689,-0.0859085608910746,0.147803777311541,-0.230006105638758
260,1055,0.376032679626482,0.690093874236287,0.946938038984326,0.161002050983601,-0.0509697657866241,-0.00496926037439077,-0.138684827581829,0.247790069458659,-0.175025894083171
261,1056,0.377515056281222,0.689576138880729,0.946966868525272,0.159384048608976,-0.0484604735534929,-0.00662302401911975,-0.138380253225592,0.1879858622077,-0.17866893241925
262,1057,0.378987386453085,0.68915178910455,0.946998737999849,0.156383014660831,-0.0440600350338121,-0.00612724058770938,-0.0422927551811904,0.21407144663797,-0.0374075359487944
263,1058,0.380435366161853,0.688834629842799,0.947039272480816,0.154037299203454,-0.0389040117163346,-0.00529988449477053,-0.000959664793224747,0.226497817034176,0.0104523055728647
264,1059,0.381850116732643,0.688633396468246,0.94708660853701,0.152397914695109,-0.0324282610388803,-0.00461901932482021,0.0578917095248021,0.241619754478507,0.00937002114940407
265,1060,0.383238389549394,0.688541401001682,0.947134437471045,0.152009301785157,-0.0257197331084326,-0.0044687612256419,0.14422075828703,0.278810790800236,-0.0164082060665991
266,1061,0.384581612706378,0.688546395461265,0.94718569104064,0.149103374625916,-0.0185396823819721,-0.0030754538914898,0.2095616653568,0.272176097592892,0.061473519767397
267,1062,0.385867987112473,0.688619563155905,0.947244916750104,0.143952022174382,-0.01203615644191,-0.00154814834402804,0.179093598585106,0.28723332876113,0.0652283872602601
268,1063,0.387090671269397,0.688731866297187,0.947312471114406,0.137549084067501,-0.00657075775553315,-0.000124726799478608,0.124690633535219,0.296857255892635,0.0550024798760036
269,1064,0.388264811092507,0.688846459997263,0.947385267193504,0.131976121238508,-0.00223669877771332,0.000533763805668323,0.0977024386751479,0.248066927519911,-0.00713988097816749
270,1065,0.389419853942988,0.688951065853998,0.947455541697915,0.128140553217513,0.00183763081968223,-9.73002642317163e-05,0.027838993154722,0.262460118619815,-0.117083488265279
271,1066,0.390593375991877,0.689007095105536,0.94751277970124,0.1263198533297,0.00439154938976013,-0.00176860510152147,-0.0442083077485471,0.260363112355464,-0.195410586911498
272,1067,0.391763077446824,0.688990698395524,0.947562675804003,0.123284655964061,0.0055410026897187,-0.00245440741100724,-0.0486639037917089,0.234134631680232,-0.15482637535518
273,1068,0.392942214498177,0.688885314982135,0.947607467123659,0.122097639570539,0.00464345002672914,-0.0034649618171336,-0.0291679082181229,0.212362494411105,-0.177637658093051
274,1069,0.3941525421542,0.688690402513701,0.947646304588313,0.123149962366548,0.00160478274825804,-0.00390504872146154,-0.0310518002115216,0.177247545460765,-0.11190915568191
275,1070,0.395399082862569,0.688416349101668,0.94768735668953,0.125823583117898,-0.00263595068432736,-0.00315365231885134,-0.00841910783364807,0.152232072874498,0.00265369215565392
276,1071,0.396692189514971,0.688093326124969,0.947738130639999,0.130162286351556,-0.00771099202716474,-0.00142218453832613,0.0367297670718604,0.137394602362205,0.110678823806437
277,1072,0.398012214934615,0.68777102532331,0.94781216370025,0.130371380557985,-0.0143521804628503,0.00252733753435524,0.0393468519874653,0.0765010440918189,0.285347799775407
278,1073,0.399268642525186,0.687411736471391,0.947923343999411,0.129264719873007,-0.0204651938389663,0.00738405149006762,0.00574363047633103,0.0656795116058824,0.378744051443267
279,1074,0.400472206420442,0.687072405895742,0.948071685684788,0.126603825388952,-0.0259811023391781,0.0125360145853127,0.0123723548449838,0.0037658496439679,0.406418013166003
280,1075,0.401652326130786,0.686767804676044,0.948242551822423,0.125577573192296,-0.0299530022879563,0.0161232334443129,-0.142764597457009,-0.0631564462011416,0.334537651252126
281,1076,0.402832221031336,0.686510718557051,0.948416785060862,0.126277766633799,-0.0310535866631008,0.018140353025934,-0.158130544833103,0.0600417609674193,0.242082856007018
282,1077,0.404018230034518,0.686312949330841,0.948619309250883,0.127839862960072,-0.0298537575896104,0.0198955841939216,-0.225208021395482,0.0758443091532677,0.192936309524015
283,1078,0.405216361169947,0.686223330332728,0.948831750735715,0.126812107988145,-0.0263498100645747,0.0223244228755978,-0.271594022173337,0.106895459650331,0.203387353297804
284,1079,0.406430565722613,0.686211573068936,0.949051719022935,0.124252091490509,-0.0206668414070375,0.0245295120518283,-0.25474406011929,0.127753825636847,0.16084913579888
285,1080,0.407706267259098,0.68629081366923,0.949253593503903,0.122994804969407,-0.0132829752327095,0.0253578951687122,-0.225856162818411,0.231706555585151,0.0851258697710545
286,1081,0.409031300144917,0.686669378713199,0.949410929360409,0.129762789106245,-0.00423508769865878,0.0217351826620503,-0.340452818001238,0.294867797661827,-0.201697643013954
287,1082,0.410465067673148,0.68684362041444,0.949520491309889,0.130849362869454,0.00146307579110998,0.0199308940569143,-0.116842479261201,0.185703149413369,-0.137877808147444
288,1083,0.411940784163225,0.687047829017608,0.949694849950868,0.139115771301569,0.0111614780394868,0.0139040363527816,-0.344630631236553,0.166508993571786,-0.41552164022062
289,1084,0.413358181673436,0.687157042393375,0.949801921213753,0.138605882113101,0.0157764526952127,0.0116779555607512,-0.147148046323105,0.131814547848133,-0.240200831835227
290,1085,0.414542230105212,0.687165802520351,0.949860361388649,0.127676582079398,0.0155934778682796,0.0119690531038866,-0.126949378609367,0.0522591190303,-0.0512659936849669
291,1086,0.415483605716086,0.687045341397083,0.94987279889706,0.109852245599787,0.0122654029000436,0.0130958892751698,-0.208488695261753,0.172384086447898,0.0732105665331157
292,1087,0.416206795885044,0.686838190115317,0.949829162510171,0.0940183859035177,0.00750779168504876,0.0104700608011523,-0.408185505328065,0.212503066546787,-0.0945122041721341
293,1088,0.416765665585133,0.686555311495326,0.949704426311065,0.0811414822910495,0.00169496469211607,0.00503251845071674,-0.380584320277312,0.194934498193502,-0.243452010503507
294,1089,0.417324725705319,0.686258352199503,0.949370452962768,0.0737431410230837,-0.00204400856268797,-0.0030375144126073,-0.465088606080319,0.205121556236797,-0.284126046477365
295,1090,0.417983673066931,0.685998484218693,0.949023178117749,0.0696947024252994,-0.00445818190019232,-0.0100957090198531,-0.270569188658255,0.253294488774758,-0.268312876098507
296,1091,0.419432507114322,0.685628406756792,0.94864065581746,0.0805269344762377,-0.00793807223848613,-0.0146945164483047,-0.0773956222500512,0.33798277960638,-0.0412562203682248
297,1092,0.421719073677854,0.685196407100874,0.948308463611366,0.107679452605863,-0.0108950107179448,-0.01864018000191,0.068793510957065,0.407809764599406,-0.0526347167884625
298,1093,0.424673759284359,0.684780941199616,0.948063774853025,0.140583194630238,-0.0136410287389873,-0.020662048388921,-0.043743349376005,0.375173204482584,0.0317623737704553
299,1094,0.427738929849187,0.684420809999105,0.947908273532598,0.171268442573264,-0.0152525337278241,-0.0216194920670516,-0.0406856251515682,0.421527346509186,0.0501723206057304
300,1095,0.430684120493645,0.684169667193101,0.947836156541309,0.193609489336781,-0.0146010678431071,-0.0186621749623076,0.167569479282099,0.304619738162467,0.231267129670881
301,1096,0.433386271559498,0.684012964459224,0.947829665092744,0.208021502143178,-0.014806675287145,-0.0149409670522753,0.286112428674264,0.148157256566228,0.237026399802852
302,1097,0.435813341374437,0.683928490459906,0.947869983315031,0.213133388255654,-0.0132170884270409,-0.0101980396678246,0.287710905000174,0.134459568422828,0.2561560764622
303,1098,0.437979924710887,0.683882160573871,0.947837130657629,0.21455003136438,-0.0123736082766578,-0.00667579314388216,0.275785154095494,0.0401894965783768,0.252368538019194
304,1099,0.439942496712539,0.683862993925777,0.947787584466337,0.211977204473543,-0.0113718364232032,-0.00418906545777474,0.229294042744415,0.0120635464331862,0.177232127438634
305,1100,0.441729305352252,0.683850039153937,0.94767775477568,0.206036992962329,-0.0105589896457726,-0.00337088087371939,0.138040342008246,0.0198230218691949,0.121033283006339
306,1101,0.443409911992117,0.683838629781313,0.947569839254087,0.200975737124671,-0.00887729078273948,-0.00468415311698206,0.0955434213354372,0.0291408718117599,-0.0314325568321478
307,1102,0.44500057219463,0.683821110437302,0.947447010344794,0.194335912863226,-0.00758702294675399,-0.00693546723259168,0.0091093501400247,0.0950163877879622,-0.126971199909174
308,1103,0.446525553328549,0.683814738620397,0.94730640258751,0.187052595482495,-0.00493443479624583,-0.00930136957112295,-0.0312863110089178,0.123828505767159,-0.177206272904167
309,1104,0.447999390703658,0.683836934250471,0.947142063958015,0.180572194903444,-0.00140994004883332,-0.0126408837408318,-0.0594904284244284,0.163856850400236,-0.262018337513415
310,1105,0.449412506324019,0.68390390050147,0.946955486237363,0.17378985678719,0.00153408238870883,-0.0158552919029724,-0.0831251566332794,0.134614081151658,-0.269678259107189
311,1106,0.45074864015071,0.684009281455372,0.946756246576316,0.166218509908526,0.00495591426157157,-0.0188444696025151,-0.0258369965776951,0.195639867070679,-0.28916117325572
312,1107,0.451991375326522,0.684129404826498,0.946491565890991,0.160161216484707,0.00923199471265344,-0.0217536189504586,-0.0112717092285366,0.180906993151729,-0.311277582242677
313,1108,0.453221709116144,0.684322053545603,0.946281906826745,0.154182730452588,0.0119533911486902,-0.023627917847939,-0.0195422945429323,0.171045216737742,-0.204471984335374
314,1109,0.454431422609429,0.684570082369598,0.946069815519517,0.149115687842011,0.016358473088671,-0.0260855440799262,-0.12377768640784,0.179231847188931,-0.215650667897831
315,1110,0.455617556901898,0.68487186109939,0.945860594103759,0.143670261803319,0.0204977916014199,-0.0266805066222107,-0.0672615776824435,0.181457422100956,-0.11403430427478
316,1111,0.456762172672117,0.685243519630495,0.945671889083583,0.136711117964585,0.0259077340111513,-0.0254171779921368,0.0614913515782628,0.251497284501324,-0.0465469747375444
317,1112,0.457880789030922,0.685675201397211,0.945498841669268,0.132351553698326,0.0311450308624477,-0.0249508535527915,0.13048878918128,0.386093012454774,-0.0530757010660364
318,1113,0.45894956663025,0.686160912752748,0.945349165603891,0.125628823225733,0.0366278482755681,-0.0229101968809617,0.216005437651973,0.471254512110299,0.0146104933416789
319,1114,0.459953664930128,0.686677540902836,0.945216912609572,0.120433506451515,0.0423644636327617,-0.0216721766095018,0.150913691207669,0.504936169548801,-0.0337044180853253
320,1115,0.460896401158736,0.68723099634609,0.945097375677408,0.114534179430135,0.0471949918462484,-0.0201506674115234,0.228067110570336,0.432809191426417,-0.0721139663380794
321,1116,0.461740409136054,0.687761496196429,0.944995453894118,0.105643708967182,0.0495720164137278,-0.0176183731003921,0.337011520117769,0.370170976119527,-0.0502133489433873
322,1117,0.46249172604414,0.688270597977848,0.944906622466278,0.0972696812596197,0.0514617766842229,-0.0161679520674139,0.353438091500984,0.289318992292984,-0.127210083392164
323,1118,0.463197917247396,0.688749657405892,0.944811079349767,0.0935586847856046,0.0532542185510762,-0.0171209736765312,0.405243406449791,0.214408669397473,-0.271422591187586
324,1119,0.463843629070486,0.689186421390219,0.944709889438651,0.0893825175512852,0.0539679692221932,-0.0169220988214386,0.619467838298636,0.210798623136876,-0.251457151313564
325,1120,0.46446069903094,0.689563290828365,0.944601411608333,0.0859678778689839,0.0530375959594331,-0.017823872305401,0.579674601573499,0.208356554985539,-0.331698921302159
326,1121,0.46506213804402,0.689913728471222,0.944479966373315,0.0860491305082564,0.051472189398751,-0.0199846476418411,0.635418765505209,0.111471731014805,-0.425583094288815
327,1122,0.465652893584681,0.690232689088479,0.944336021887677,0.0816066918880429,0.0505881782639468,-0.0222460066363843,0.526383469055437,0.0651041325915184,-0.523012003889846
328,1123,0.466237545700023,0.69055669308301,0.944160769857408,0.0787770826680736,0.0495678891960048,-0.0261522459582744,0.508268756749978,-0.0165429154873235,-0.59132804905218
329,1124,0.466834022492919,0.690896188236518,0.943944255811523,0.0757209350828617,0.0498925469612159,-0.0309150954457831,0.400682232033974,0.0658987167673827,-0.61841313824404
330,1125,0.46747119425287,0.691260729969082,0.943679037016577,0.0749406908014066,0.0510812881560541,-0.0368745801619905,0.383402711570987,0.208274812413889,-0.682582967984101
331,1126,0.468170265869559,0.691674783115211,0.94335829874391,0.0759010643404308,0.0535615143428041,-0.0435883886457221,0.302035655765527,0.274607028265979,-0.734555458114161
332,1127,0.468912654254838,0.692133977167027,0.942990337117816,0.0758230774148671,0.0558008333970143,-0.0485734466422632,0.266982062901915,0.206867181293812,-0.619775692031505
333,1128,0.46968984316575,0.692646206702078,0.942590028932007,0.0759100330256375,0.0590921551102107,-0.0524464911204082,0.324469561886608,0.217239378164449,-0.547936992795034
334,1129,0.470509241199591,0.693218419810703,0.942174266677601,0.0763734385017966,0.0620428875343089,-0.0539144297903283,0.272193632845162,0.314244261606205,-0.285372820746824
335,1130,0.47137086156382,0.69389143496084,0.941765399917782,0.0767872577960913,0.0680486065966299,-0.0517269099127665,0.0870157930682101,0.335409874284009,0.0868657704296044
336,1131,0.4722768507618,0.694769652110155,0.941630667426908,0.0747357123093139,0.0758087716003911,-0.041357428874498,0.0373816237503279,0.321643905372486,0.510364142428529
337,1132,0.473028254137965,0.695605633646253,0.94147355661611,0.0708473300667509,0.0792188029196975,-0.0278817412819367,0.345437291979613,0.324263546350615,0.930848881967327
338,1133,0.474075207885252,0.696633001106956,0.94139795898093,0.0747980327612641,0.0814301405910844,-0.0141448624213881,0.594175751943539,0.274688405119788,1.05192321593568
339,1134,0.475161218166066,0.697562012329168,0.94139958215877,0.0812325894728602,0.0815195643695733,-0.00202744990172108,0.362079493127937,0.0703083983453913,0.944192092515637
340,1135,0.476347195732558,0.698493200058216,0.941429401285084,0.089195743963466,0.078433032392249,0.00612526815350423,0.024690841529741,-0.131197884019125,0.714513260073937
341,1136,0.477466849631877,0.699355047241372,0.941467110458963,0.0935517216907414,0.0760863958882731,0.0113194212403963,-0.114995335952978,-0.240671771053812,0.513995722552272
342,1137,0.47843663594036,0.700212624378819,0.941432950896924,0.0974615144374807,0.0749570282379103,0.0124857741092431,-0.243681693755846,-0.141603445958178,0.260391249534668
343,1138,0.479174623811244,0.701113808728222,0.941351572306589,0.0949095027331739,0.0753430737469638,0.0136750180476256,-0.171911541983177,-0.187764876379963,0.206930988954515
344,1139,0.479747869698401,0.702081297704185,0.941205420968584,0.0928772128866409,0.0785101734662849,0.0118093498126653,-0.107751192151533,-0.0750382513436646,0.0729175428379102
345,1140,0.480220391110501,0.703159887217244,0.941000618515183,0.0890066055132509,0.0832067537477578,0.00810847121484657,-0.149368013076539,0.0254015159080197,-0.0167296876315205
346,1141,0.480662535663331,0.704325919695073,0.940759969941202,0.082534543022401,0.0896451040141108,0.00528232639867999,-0.152831047070807,-0.0259519649183094,0.0241500684781454
347,1142,0.481132468520119,0.705539800074621,0.940503922261241,0.0754583272896713,0.0958676622764354,0.00306527244768499,-0.16671310807572,-0.0311187212617749,0.0615442997705356
348,1143,0.48168783310389,0.706755282963975,0.940248468044275,0.0702882666365233,0.102136529581191,0.00203659899676439,-0.178680085324286,0.075594353857276,0.133735705542223
349,1144,0.482361223887188,0.707937732872511,0.940099434827081,0.067742576389664,0.105078109304813,0.00141226294224915,-0.306875416442384,0.148535409830378,0.15763333048199
350,1145,0.48317216505161,0.709049396286474,0.939989587694336,0.0663117411595158,0.105817533583246,0.00232948167335053,-0.368473204563865,0.105783248075235,0.232925594374607
351,1146,0.484095156367213,0.710086612250818,0.9398917702299,0.0675566146994807,0.104256833621387,0.00263537678906979,-0.441180268247407,0.0654716128100877,0.185455240625029
352,1147,0.485412615277698,0.710976480302039,0.939782890683438,0.0708881506170104,0.102036083555711,0.00209855927918874,-0.609825054841967,0.0658303869031117,0.121182769241332
353,1148,0.486457949010466,0.711840183188885,0.939693021548827,0.0722449864696083,0.0982254824990035,0.0031930515236384,-0.459275042016132,-0.0649889580423057,0.183139049260186
354,1149,0.487564915218909,0.712641553324389,0.939601541100237,0.0786137405931892,0.092356148870618,0.00247899757555965,-0.57139612823873,-0.0112602986398464,0.128683309394881
355,1150,0.488706952436924,0.713416056798343,0.939509110472888,0.0851069043525186,0.0870693769706837,0.00228834825071647,-0.423309105514942,-0.122124585143393,0.128973607607476
356,1151,0.489890269101453,0.714204840462314,0.939418098428936,0.0916657224850298,0.0842669614675206,0.00229851956165187,-0.286323247093862,-0.128683419348172,0.0943305335176091
357,1152,0.491104184747075,0.715055881617353,0.939328869768445,0.0974392439528035,0.0847334269877319,0.00268570301077729,-0.235640630996136,-0.029809153081843,0.0889838567401865
358,1153,0.492372834815768,0.715984088864282,0.939233570639501,0.104994410280522,0.087088128252731,0.00182185266804287,-0.259471434289624,-0.0942930818780832,-0.0108455329709398
359,1154,0.493661312372781,0.716948398125408,0.939132261589612,0.110247528924064,0.0897545168616251,0.00132661884997655,-0.188375818024959,-0.0992344051761503,-0.0302722942030183
360,1155,0.49498825123191,0.717974735105216,0.939045927310535,0.115642516505475,0.092777077427073,0.000133599458127018,-0.23495911923518,-0.0735613501099657,-0.063808027380957
361,1156,0.49632287332704,0.719022599724241,0.938940228975847,0.121688437509923,0.0966964638717091,-8.90733613079847e-05,-0.130381007592849,-0.100134951210672,-0.0149789888239011
362,1157,0.497671266428886,0.720095405851487,0.938840850768051,0.125841984619511,0.0999658288543257,-0.000451846877743123,-0.172824960252089,-0.0197898608834708,-0.027243764861213
363,1158,0.499000044216939,0.721189153536204,0.938757527784436,0.128382657061562,0.103458160927028,0.000380586974386802,-0.100726790034672,-0.0873202828741626,0.038724566013064
364,1159,0.500315456447149,0.722273564805897,0.938689966434088,0.130034184738007,0.104942160424739,0.000931222041595027,-0.0986203305360017,-0.0483434104746035,0.0442945520619118
365,1160,0.50160713691494,0.723354675706836,0.93863433131257,0.130671304693407,0.10673938175675,0.00134660953256904,-0.111826653995399,-0.00976221658388624,0.0202092937587544
366,1161,0.502876272498957,0.724462614799896,0.938588351654851,0.129784836506813,0.109879995945228,0.00206903228870917,-0.115508537533339,0.042247031409301,0.0326786899632044
367,1162,0.50412854521541,0.725611980766323,0.938551411735123,0.129071130475217,0.112565628787355,0.00234439907518899,-0.118666332476196,0.0682842548034267,0.00455032396474357
368,1163,0.505369549592037,0.72681368346863,0.938523193075325,0.128620038466081,0.11547983004567,0.00303779108238775,-0.0737834488656345,0.0146741785563629,0.0259110024772477
369,1164,0.506602007784925,0.728083118849517,0.938505130097805,0.127698906234902,0.1195678236309,0.00395620138290224,-0.0423319030881756,0.0934504469603957,0.0425962297572413
370,1165,0.507827665915921,0.72945288491627,0.938591976134626,0.126698804235392,0.12503083584098,0.00535971078248526,-0.0329999099120619,0.116580317112849,0.031322471379373
371,1166,0.509037566112611,0.73090644775252,0.938718789264825,0.125150420788292,0.130182553794307,0.00649172556362777,-0.0931854232349491,0.0916029448622433,0.0134280187551448
372,1167,0.510225259185175,0.732421258195276,0.938860830957089,0.122543118883301,0.135317814699586,0.00793981731832008,-0.0813692485830006,0.0259436449568163,0.0246756345189682
373,1168,0.511400042174899,0.733956384529238,0.939011961041926,0.120838695065459,0.139343733314649,0.00906211549198667,-0.126826173749387,0.0677835185570926,0.0276417472124722
374,1169,0.51255487135435,0.735498210181786,0.939174223755946,0.118427114248354,0.142456037984741,0.0103356541695925,-0.11572032003172,-0.0366090582294911,0.0305543787675174
375,1170,0.513682136176172,0.737019465991973,0.939348440653438,0.115027676053341,0.144235958278166,0.0118295171702268,-0.107535373306494,-0.0207973791294665,0.0521311557817889
376,1171,0.514780724768683,0.738514622603502,0.939486527095459,0.110874924566582,0.144619397243051,0.0129125290482428,-0.14721124530078,-0.0463814628289465,0.0780850694495022
377,1172,0.515855828654066,0.739974790551004,0.939642822589923,0.108100639181326,0.144013271440857,0.0135074731231872,-0.144789292134937,-0.0889017807194294,0.0460432731183061
378,1173,0.516958952766219,0.741400522449612,0.939812110777664,0.107629951283769,0.142044314462177,0.0140816730576401,-0.125885432394096,-0.106232172575202,0.0543450437727544
379,1174,0.518109761008804,0.742801660704307,0.939999559643372,0.108371180285653,0.139858477496055,0.0149129201953288,-0.127980495837695,-0.191617995411681,0.0527922206041759
380,1175,0.51933182665515,0.744170292540557,0.940200745837244,0.112229263650689,0.137194658887715,0.0149620236739642,-0.140873167103024,-0.185863720219988,0.00771489940786461
381,1176,0.520609836426721,0.745507011622803,0.94041597861326,0.116343708012486,0.13509170209688,0.0157071051651684,-0.106700604033972,-0.150237968956374,0.0436652125609713
382,1177,0.522071576893087,0.74673336372532,0.940662969580115,0.124088344354231,0.134507619811512,0.0158185381383757,-0.128492833457683,-0.0714153693396472,0.0282689664821352
383,1178,0.523437215974651,0.748033760733188,0.940913552220855,0.126508630399582,0.132521250269651,0.0179673280411615,0.00305889866927661,-0.0837059094993548,0.128609340871138
384,1179,0.524888103054862,0.749299189658545,0.941169000202473,0.136641104626126,0.130184598801132,0.0182501105627136,-0.147519119440335,0.0729812830914841,0.085485542805098
385,1180,0.526374035184538,0.750563261056903,0.941436130795835,0.142647106979972,0.129296856067432,0.0206609136535584,-0.0077033784776048,0.0805834768599804,0.192828936841421
386,1181,0.527869405948841,0.751856162155193,0.941716890698543,0.146143707949117,0.129304088812727,0.023064008251132,0.0567615844527415,0.0563551639737537,0.200508172127086
387,1182,0.529368956240293,0.753193582784401,0.942017424483355,0.147788666198055,0.13048969870618,0.0250884323385018,0.109601680617301,0.0274569128955677,0.16150342937506
388,1183,0.530854131352631,0.754568591276635,0.942346000227191,0.147119855512817,0.131890249575394,0.0269565588494532,0.0699532280929028,-0.0152413835289806,0.127871423722183
389,1184,0.532320019667283,0.755977681688301,0.942700215680276,0.146046964428258,0.133888579314097,0.0283279561651688,0.076645560666095,-0.0747681477826849,0.0631334366673573
390,1185,0.533766827917708,0.757398988402539,0.943074359565569,0.143686831512782,0.135611160164765,0.029857331800013,0.0873201761101058,-0.147403840515472,0.0401047062924586
391,1186,0.535219646025696,0.758801436884246,0.943460168478043,0.14283471635239,0.136151444283752,0.0298047397218659,0.0306063653524726,-0.138360529662261,-0.0662590384337216
392,1187,0.536676002994131,0.760166379237517,0.943857287598375,0.141879064951048,0.134356456486546,0.0294755790309843,0.0443178731167015,-0.0621719873013023,-0.0896549089691186
393,1188,0.538137822881646,0.761494971705647,0.944264980426041,0.140643686853664,0.13232360578796,0.0287220479978813,-0.0234786991422952,-0.0894832649056407,-0.138727976772137
394,1189,0.539598409420274,0.762770681129716,0.944685496150015,0.138714560124294,0.129279642164762,0.0286228748151043,-0.0173515024896376,-0.113447296855327,-0.111158977957521
395,1190,0.541069722162741,0.763987381841032,0.945120114678044,0.137292938427178,0.126321213114214,0.0284993901637114,-0.035996984625087,-0.113566491621575,-0.122257644897723
396,1191,0.542555581525269,0.76512539777721,0.94557054265479,0.137342023221773,0.122012265380996,0.0283735802972928,-0.0547677559776351,-0.136755139336528,-0.117726049745152
397,1192,0.544024030192824,0.766208327623526,0.946040339808639,0.135677326603277,0.118035963168108,0.0292490629452767,-0.0125482281510937,-0.162305725840347,-0.082387843602619
398,1193,0.545444777104159,0.767240105374036,0.946523650098033,0.133702849756552,0.114364598868675,0.0294507800609022,-0.0782911090925468,-0.128521646862699,-0.12891305854401
399,1194,0.54682532738498,0.768253255416424,0.947006487691693,0.131573453742021,0.110404489471432,0.0297166630292109,-0.0996939430269578,-0.171289044220275,-0.118421039053961
400,1195,0.548144414683053,0.769250871597,0.947476023134437,0.128808494794424,0.106904135667549,0.0293425020270867,-0.065482051422038,-0.12595458603008,-0.163706640581231
401,1196,0.549356660066866,0.770302190018872,0.947921136845812,0.126783694103192,0.103738282730882,0.0274734332231977,-0.163788236135369,-0.0776372090461786,-0.226057620358107
402,1197,0.550521603417019,0.771311677120872,0.948296980903671,0.124432081908138,0.101032011757292,0.025116009836416,-0.0568251021062111,-0.105189659001831,-0.228864656780284
403,1198,0.551680663438505,0.772289314890694,0.947132433286621,0.123022118902747,0.0987218849618629,0.015167870637935,-0.194515998284035,-0.139214987647439,-0.296552683043678
404,1199,0.552980299541404,0.773071490025443,0.946120798773119,0.128210794607264,0.090155722400793,0.00435860411486424,-0.163296623921952,-0.0926462912980503,-0.308829210617479
405,1200,0.554719698429871,0.773252601528789,0.945112088860438,0.139264933043283,0.0723864601689637,-0.00471281385350857,-0.0605884237168907,-0.145879227938176,-0.200782128377681
406,1201,0.55704916021208,0.772598728636478,0.944019923403966,0.158608571597912,0.042251803394381,-0.0147149993912883,-0.0741054176532029,-0.204115686760849,-0.154019064571492
407,1202,0.559636074925232,0.7714150983968,0.942842803020626,0.177906889686515,0.0087967553382446,-0.0238909260449214,0.00690488791620153,-0.248390075599977,-0.0605337070499786
408,1203,0.562147325476275,0.77011873464263,0.941938891618961,0.190924009654467,-0.0200309347234711,-0.0290696129083545,0.00881502709539537,-0.287036769227956,0.0960662101521566
409,1204,0.564445510940976,0.768892731168406,0.940906932263238,0.197697289769971,-0.0425141185482768,-0.0330130949173447,0.0545199439268498,-0.297518440212263,0.176801979798969
410,1205,0.566427093097514,0.767909490418367,0.939759092002291,0.197639623659744,-0.0553986679655313,-0.0376468499457927,0.174840091841101,-0.249129638674436,0.189128263387497
411,1206,0.568027117838587,0.767311355731897,0.938735348089093,0.19000536389034,-0.060924263016695,-0.0413119767298376,0.0040726295568147,-0.284849225474128,0.204758677936999
412,1207,0.569370042716057,0.767019001307378,0.937795607575045,0.179360929538353,-0.0602384335517247,-0.0444746371797943,0.144030340002613,-0.201390468827465,0.162668578883798
413,1208,0.570533780029184,0.767001275192684,0.936959508302215,0.165425923260811,-0.0551964081293756,-0.0457711520894994,0.0573585379949809,-0.273406282170103,0.188115437540756
414,1209,0.571574019785033,0.767193403082624,0.936238542970237,0.151379624926792,-0.0472962217128678,-0.046111402981074,0.0203735975103001,-0.289062312090021,0.144364983092318
415,1210,0.572588077300279,0.767523695780795,0.93562242992409,0.142048248651868,-0.0382542033733339,-0.0466362552512405,-0.0745660157188271,-0.27742840945891,0.0763259825753537
416,1211,0.573562352217941,0.767977537026836,0.935109761107952,0.131491467361867,-0.0287321772647749,-0.0452456623600683,-0.102438234135407,-0.289879816879317,0.100206478803513
417,1212,0.574528556481742,0.768535617721158,0.934688035791637,0.12276823090664,-0.018185529008287,-0.0436193588060746,-0.072475872118795,-0.184560921097532,0.0669470191525776
418,1213,0.575493028589152,0.769121729275103,0.934341433283752,0.115633781198625,-0.0075420172331744,-0.0415583954037125,-0.0771065548103892,-0.119707459220305,0.0402249209026313
419,1214,0.576469483991893,0.769738322929138,0.934062993326214,0.110109412380707,0.000841996103590034,-0.0390068561692836,-0.0985564880522062,-0.101682290969408,0.0576128091628023
420,1215,0.57745591305856,0.770367887035872,0.933840500440123,0.106905419965751,0.00875400567001282,-0.0369457568890761,-0.056952265740407,-0.117858095053275,0.0110428962556274
421,1216,0.578463644518069,0.77102307916646,0.933655235844427,0.106989294952824,0.0164286677116982,-0.035920863663063,-0.0668020829831323,-0.0488522673615107,-0.0462457830146448
422,1217,0.579521476141399,0.771692318819818,0.933493718733285,0.108674231159032,0.0233518109895544,-0.0351195038267791,-0.126705907931167,-0.00301225433766511,-0.0439856917765305
423,1218,0.580623804970366,0.772368187440234,0.933355444719109,0.110319823692262,0.030077334602052,-0.0340734625758976,-0.0626111437463904,-0.067275777850866,-0.0779660912545536
424,1219,0.581825360179025,0.773027003875482,0.933228766208678,0.113477172525127,0.0344460013903985,-0.0334017745844628,-0.130827123503494,-0.0998699686367647,-0.0872600920030071
425,1220,0.58308978366007,0.773678003080376,0.933117573662438,0.115855705625889,0.0376982164645887,-0.0317118198685561,-0.0890267206699007,-0.134114333314848,-0.0409216671351879
426,1221,0.584365958385034,0.774292263746217,0.933027713808869,0.117526841235038,0.0388809448294669,-0.0296606123767871,-0.0603866830676874,-0.189175280336345,-0.0160612787973378
427,1222,0.585600248917559,0.774888333196366,0.932962048661269,0.116558780991009,0.0389218655975653,-0.0267427190193291,-0.0494153345443203,-0.28656413834451,0.0318836978887272
428,1223,0.586813504730116,0.77542360773738,0.932916461713165,0.115747965731344,0.0373028352046973,-0.0237362685307924,0.00779319417444705,-0.251904197084798,0.0640979685270272
429,1224,0.587999393256748,0.775894756442128,0.932885380551457,0.114635316092521,0.0341199758385671,-0.0215083545115089,-0.0153899239448895,-0.343093399112223,0.00365598494636584
430,1225,0.589095500561032,0.776316896052373,0.932869436096065,0.111920578921633,0.0308561641279554,-0.0187627368096336,0.0564710025070744,-0.407582770937596,0.0238229409617794
431,1226,0.590083408559397,0.776627289922059,0.932862296650195,0.107261791291185,0.0258741481684549,-0.0175609222366735,0.000844833375762534,-0.360904170174919,-0.07837379064918
432,1227,0.59097057002549,0.776829403981814,0.93285891165933,0.102013174606616,0.020593209070364,-0.0165573049719471,0.0694531463133885,-0.332335568373661,-0.115670163288317
433,1228,0.591756582289611,0.776962239050197,0.932817578625306,0.0960867755970992,0.0151847318913029,-0.0166083676743434,0.107316955095139,-0.277624460461892,-0.169161072585291
434,1229,0.592488228419586,0.7770623205182,0.932779978610291,0.0910952051318938,0.0103950750026445,-0.0168241950431607,0.0824202883534553,-0.182717436976155,-0.16547831151422
435,1230,0.593220105085122,0.777159180220862,0.932744739319808,0.0871972803262076,0.00604126993992865,-0.017419946227319,0.111232782258958,-0.17384977030387,-0.209056213039161
436,1231,0.593975308219564,0.777277179350913,0.932718363079225,0.0835857569494607,0.00424305388188087,-0.0177034782995478,0.118241968543741,-0.232522222720924,-0.231953225776266
437,1232,0.594799934037529,0.777396292088777,0.9326896872151,0.0842395143976097,0.000957280913596658,-0.0190491302277535,0.0471832135779603,-0.181806847894738,-0.258314060047156
438,1233,0.595650403353293,0.777526086778301,0.932658805610739,0.0848528801491373,-0.00104161138868807,-0.0194487327785655,0.158050850633858,-0.228168882428816,-0.216415936508845
439,1234,0.596572813729578,0.777589312066164,0.932627474446116,0.0876723823753046,-0.00443591192724863,-0.0199976280625135,0.101990128696643,-0.228761627204765,-0.189195086310973
440,1235,0.597527904038354,0.7775984505407,0.932606690771131,0.0902495494413774,-0.00739352309029448,-0.0183912332425286,0.325936701580245,-0.265946106639404,-0.0706789724492185
441,1236,0.598519915482705,0.777562007549728,0.932599789629914,0.0936064808622519,-0.00982554856409869,-0.0170151171565766,0.372690548167058,-0.215798636718183,-0.0853583491724555
442,1237,0.599560461016088,0.777499134320104,0.932598626060791,0.0984238026216471,-0.0123394736034401,-0.0156314541996377,0.374750366493609,-0.197797603214908,-0.0640186433807951
443,1238,0.6006712181281,0.77743495156812,0.932594867898743,0.103507155967627,-0.0143676201841546,-0.0152457422475336,0.342310933819379,-0.188393425955284,-0.129564054103005
444,1239,0.601836905392122,0.777396637103758,0.932581779289226,0.108830063762464,-0.0162633247176238,-0.0147629616640461,0.340572660120687,-0.253441557636806,-0.117943939512457
445,1240,0.603052307818273,0.777375432704996,0.932555973879811,0.112537487909144,-0.0184061923638298,-0.0147029626992844,0.364601881032781,-0.311977967880657,-0.149969231171198
446,1241,0.604337679455241,0.777364424621485,0.932507197533372,0.117168527672702,-0.0196227452019253,-0.0161394641301132,0.282637251633549,-0.327801386561209,-0.24253076346849
447,1242,0.605670475696433,0.777370911292183,0.932438632649618,0.121907590697789,-0.0190218674161125,-0.0169320825386678,0.369606221106973,-0.320586638424092,-0.205104965992307
448,1243,0.607066841224411,0.777376543011799,0.932351055876792,0.127628254250878,-0.0192158072511079,-0.0184596000504923,0.39470694442366,-0.270423328184207,-0.219532847460983
449,1244,0.608532187748108,0.777379143531148,0.932246993932261,0.133309513126941,-0.0196383300612565,-0.0196262037728254,0.458998088540336,-0.234713075961611,-0.216464788357045
450,1245,0.610067105489875,0.777384200967861,0.93212490105864,0.138843045423516,-0.0206542932434133,-0.0215320397421284,0.401067966266086,-0.2620606930359,-0.267307447120099
451,1246,0.611649411225136,0.777345418990496,0.931982448192606,0.14382221182749,-0.0204680019881578,-0.0223119458681556,0.425369373612452,-0.335857084865502,-0.206696430207695
452,1247,0.613288849873533,0.777392153148074,0.931842884133009,0.148306981669849,-0.019714354662554,-0.0230240811908479,0.404194853756602,-0.306275748779783,-0.212400614367907
453,1248,0.614860625933883,0.777377176837763,0.931698083148175,0.153672041206741,-0.0175489339711215,-0.0229029252052918,0.451341777747967,-0.236971158368936,-0.154862989661907
454,1249,0.616549191078566,0.777447028663821,0.93156275740553,0.153016291648019,-0.0171133406718761,-0.0225961118919473,0.390897770580472,-0.187603272690494,-0.142338724170261
455,1250,0.618464535205361,0.777417883967853,0.931484331412822,0.160480828530698,-0.0188512222386593,-0.0211531769074084,0.417337444570513,-0.144739929999367,-0.107900911232988
456,1251,0.618605631965565,0.776933793296261,0.931326026361287,0.145135562059013,-0.02373411969861,-0.0190907241360807,0.322381893820814,-0.191343812441304,0.0631541003936378
457,1252,0.619804947088413,0.776637148755636,0.933245979652375,0.1398365332456,-0.0256026753754118,-0.00568514333642794,0.223414824797037,-0.231749973186202,0.0601441362377499
458,1253,0.620959178510283,0.776345181979751,0.934666743055195,0.13443508459964,-0.0277414768049938,0.00650801543852924,0.298225275921258,-0.203064996827971,0.29329718312098
459,1254,0.621928154958501,0.775864966750174,0.936332573460209,0.129315068176174,-0.0304617217980979,0.0201055148718007,0.279219278529221,-0.0860847448328639,0.540419525193787
460,1255,0.623086152380781,0.775460703085769,0.937313645957796,0.128594043691664,-0.0311105697706912,0.0282930477469801,0.273227423981666,-0.0312528785046515,0.433605512023518
461,1256,0.624374607525094,0.775092551206816,0.938175938893835,0.130651082941853,-0.0307917098589456,0.0339611665412144,0.118383757230447,0.0422202074168534,0.402448763460995
462,1257,0.625776358795032,0.774783656609148,0.939026637845133,0.1333166302594,-0.0287289158118055,0.0383550577167595,0.0676127608056521,0.0246171472824085,0.330797235648355
463,1258,0.627173847101323,0.774433276967523,0.940081105737747,0.137787664241709,-0.0277448130496843,0.0415250490636172,0.0553849562841785,-0.0725904873670664,0.220587541659501
464,1259,0.628687810519433,0.774136608111653,0.94100476963747,0.143339459755059,-0.0265580887211008,0.0427911829647593,0.0961294455386389,-0.0705659079677892,0.144147429476415
465,1260,0.63025510485145,0.77385111685729,0.941817415962296,0.149820054538017,-0.0249321533570627,0.0421719688775401,0.160185999945689,-0.0733915731920235,0.0523404391274353
466,1261,0.631914540005499,0.773611153850435,0.942535075539963,0.156214994056591,-0.0233950456774907,0.0410256965362674,0.239953700276531,-0.105385377968577,0.0443863931065906
467,1262,0.633656597259199,0.773386771720361,0.943173102711454,0.162472661703343,-0.0220775948717463,0.0393809006652289,0.209395065977541,-0.0895254355937369,0.0369625711956327
468,1263,0.635487052595007,0.773148074990739,0.943740150655954,0.169602330268731,-0.0215963924254638,0.0368710555391264,0.192676567961947,-0.0455269114536999,-0.00990332585239877
469,1264,0.637369488086143,0.772870630570401,0.944246794089219,0.175046288550144,-0.0224111590731301,0.0347059084221202,0.132460982104195,-0.0288799578571349,0.0207876763018595
470,1265,0.639280966090256,0.772553284581886,0.944703885493119,0.179784953263033,-0.0237777779694022,0.0329295702313419,0.0658081432584765,-0.0557014905476385,0.051645026822352
471,1266,0.641180996510231,0.772195049941284,0.945121346433115,0.182266816419318,-0.0254724603610307,0.0315349082001856,0.0704088168421379,-0.0226588776153041,0.0772648447002262
472,1267,0.643055888349583,0.771811441651184,0.945504891063608,0.183669765411169,-0.0275169217174193,0.0306561368254002,-0.0198103194989731,0.0100024416824661,0.134076831484316
473,1268,0.64489714280829,0.771426339903226,0.945858002306501,0.183741967319817,-0.0292435972584548,0.0297654341239281,-0.107546722540569,-0.0198289946104623,0.144490530405989
474,1269,0.646722508739882,0.771053299537808,0.94618071229691,0.184383545015204,-0.0309135411472793,0.0288759844577449,-0.10411557482929,-0.0352722124231395,0.154973043755598
475,1270,0.648544661016058,0.77070713773847,0.946473042877815,0.184582894292331,-0.0319591370124284,0.0280273685800081,-0.149499177767415,-0.0635337314990341,0.166018780737112
476,1271,0.650351602501688,0.770404566689069,0.946736346595903,0.183708045719839,-0.0319249862764406,0.0271255924343497,-0.147726616884575,-0.0917883006831356,0.159285268664992
477,1272,0.652175339100592,0.770145128292449,0.946964913633615,0.184414042673547,-0.0315749774206662,0.0252354509571768,-0.196139437056889,-0.109638602415153,0.108648345913303
478,1273,0.654021674353305,0.769930348443736,0.947158557068888,0.182972613254766,-0.0315451751515644,0.0237359623789482,-0.206609581469803,-0.0653514374721662,0.129105273928327
479,1274,0.655826028015977,0.769723912522729,0.947322193343547,0.181737365686192,-0.0302225784665708,0.0216493666877457,-0.275990872057198,-0.0561194996311878,0.0886668638693059
480,1275,0.657599988460098,0.769526179452079,0.947460715973257,0.178359872597821,-0.0286503723494728,0.0203256599858513,-0.223442631591691,-0.00714511069016458,0.125852373773398
481,1276,0.659353510682006,0.769307968296237,0.947576130120507,0.175090403481897,-0.0276778433635589,0.0184760298447698,-0.263656721052992,0.0900910123868858,0.0912508256226661
482,1277,0.661100591826355,0.769069411884826,0.947668899359167,0.173130582383953,-0.0269854958648536,0.0164699972298208,-0.294369004432047,0.133477059372391,0.0768209839061607
483,1278,0.662849917949607,0.768809124363735,0.947744152930497,0.172133823623325,-0.0267029328004139,0.0149780550625388,-0.254007955374112,0.142611133257918,0.108135502037565
484,1279,0.664616727360718,0.768515718265501,0.947860461819571,0.172159438452685,-0.0278315719411123,0.0143484211266291,-0.219080972871858,0.11448725804636,0.123919474371255
485,1280,0.666400021085799,0.768158182772727,0.947954155893446,0.172657012546666,-0.031072409921945,0.0140237332041604,-0.140761929943023,0.129904361785218,0.153543842312666
486,1281,0.668225201563387,0.767758215067585,0.948024118762854,0.175381023088957,-0.0333798676327056,0.0129370060908732,-0.105512598591819,0.101334177076452,0.114239967674788
487,1282,0.670066551999385,0.767318264435803,0.948078630895333,0.177533677421962,-0.0354617746999537,0.012353202570579,0.0298958926071408,0.0980425454151271,0.129778322254352
488,1283,0.671968869479974,0.766864092668624,0.948180621713832,0.182338352359024,-0.0376244967428552,0.0115843480688715,0.0673429040170462,0.0213008356708713,0.0940636672600733
489,1284,0.673842541487409,0.766340167311857,0.948322248625971,0.185580059980493,-0.0390776827897476,0.0120304940008208,0.106129615135938,0.0236248165193509,0.14935308072753
490,1285,0.675751016048706,0.765843785846653,0.948433871632577,0.187128792463133,-0.0400916274396126,0.0120621782011759,0.0723562815343346,0.0940104219473159,0.14076312450646
491,1286,0.677629613090113,0.765333363227226,0.948521945451216,0.186842953403947,-0.0414158886821073,0.0120299191176025,0.0441907679017642,0.128079795378116,0.151586745410823
492,1287,0.679486750322859,0.764843167529687,0.948591487482401,0.18534707105198,-0.0415102770312485,0.0116215911940098,-0.0355809434046851,0.187362759405363,0.128113612960115
493,1288,0.681325256185601,0.76437030544892,0.948641076719237,0.18454845978218,-0.0423986111816343,0.0108217758449197,-0.083385956081321,0.200764196791681,0.117332738129525
494,1289,0.683155850030554,0.763934507886557,0.948671760806692,0.183953061114944,-0.0420901024279112,0.00962853842057532,-0.103175540889388,0.178295756549639,0.0844072966004692
495,1290,0.684994614439887,0.763528944545713,0.948688609799057,0.185208851748149,-0.0413618975585961,0.00786881952133208,-0.13971672313455,0.176397447480192,0.041892310873594
496,1291,0.686882725177412,0.76318379464261,0.948692478219879,0.187753778421626,-0.039819152487176,0.00594569755686342,-0.0322855204471925,0.13811999527021,0.00956140187188524
497,1292,0.688779940337,0.762875902876879,0.948689893305972,0.188927269147087,-0.0378210464246095,0.00463456229932861,-0.0277837256393536,0.0912080322368936,0.0314126182669077
498,1293,0.690714825531998,0.762613942352008,0.948682515636539,0.189022432859189,-0.0364396212323873,0.00385081558520657,0.0146935441428269,0.159349769936685,0.0645513608349439
499,1294,0.692624243012027,0.762316266908978,0.94867407927463,0.189861446583409,-0.0360199758000828,0.00269880297527856,-0.0189470301713376,0.169421092071563,0.0431175481088151
500,1295,0.694545098405667,0.762005787450017,0.948664833792,0.190482985265929,-0.0352874044289753,0.00209016286193895,-0.0146421933883711,0.141463199020047,0.0589441823226233
501,1296,0.696490314038045,0.761652281078206,0.948650378915969,0.192053392692071,-0.0368656504947765,0.00102359808789902,-0.0931023038536305,0.189945639376074,0.0490046680809945
502,1297,0.69845504490753,0.761270847595547,0.948632903686173,0.193416716146682,-0.0381378269604332,0.000614984544639743,-0.0355897981907828,0.101897876335947,0.0662005215142877
503,1298,0.70046862557205,0.760862604247814,0.948605522944422,0.198309196439556,-0.039540473414235,-0.00132293954312345,-0.045175278147045,0.100712444675068,-0.0204975842031835
504,1299,0.702511013538441,0.760437872158638,0.948568172609276,0.202238782477086,-0.0401930875406166,-0.00284554412947151,0.0600736090118357,0.0838920061810016,-0.0368858369957899
505,1300,0.70457487811891,0.76000417380152,0.948521355707624,0.204932679533492,-0.0405486853279751,-0.00423928140640888,0.0487080713809998,0.104016090931435,-0.0410555331741628
506,1301,0.706660835302532,0.759555327481375,0.948465615520235,0.207523020219378,-0.0401149440370796,-0.00531663961456984,0.0997655325981145,0.158038154367102,-0.0316333669640472
507,1302,0.708767223778319,0.759091178776871,0.948403274209548,0.209582639767845,-0.0404831441247685,-0.00582139490573473,0.0715453588514731,0.198097629241295,0.0226600351225933
508,1303,0.710891723358727,0.758594677234186,0.948334430260455,0.212633768971234,-0.0422761691711401,-0.0065047024591732,0.111451034130824,0.290846709085395,0.0370959348379033
509,1304,0.713015285024597,0.758083357023424,0.948278422281957,0.215638304382744,-0.0430490725503779,-0.00718569046734948,0.102831609083297,0.147067678508918,0.032090023484517
510,1305,0.715103139229022,0.757558592490697,0.948216852881728,0.214255829278972,-0.044612922083685,-0.00595921971165934,0.0717762298933345,0.145715553617328,0.127497337103673
511,1306,0.717143898576648,0.757002536188949,0.948169276443889,0.210778744937454,-0.0471231510219463,-0.00466975707230548,0.0225484320034746,0.179590448212867,0.115565449069621
512,1307,0.719148400279532,0.756421146297253,0.948130131070721,0.207842673106118,-0.048651496666446,-0.00409218091852553,-0.0677251773056737,0.18606625200599,0.0741068128883607
513,1308,0.721133016846696,0.755819967779203,0.948092628262847,0.205106092549219,-0.0502317022073309,-0.00392497490742284,-0.15504877142857,0.179791704815358,0.0553486653291353
514,1309,0.723098643740373,0.75519542243448,0.94805510909752,0.202727275819507,-0.0524796659038914,-0.00407778156144145,-0.106873935779496,0.18061341980084,0.0229346625919807
515,1310,0.725044613578934,0.754565097866795,0.948017930173008,0.200152941743769,-0.054449767558191,-0.00419155678078779,-0.0876582543478142,0.192630314804376,0.0130261802518719
516,1311,0.726978296338228,0.753965500259721,0.947982354477035,0.198801438799434,-0.0544177394071005,-0.00418082839189548,-0.0566113211003583,0.146885639998565,0.0178506750842551
517,1312,0.728914485017424,0.753396692736737,0.947945145994014,0.1974697358664,-0.0542966247166914,-0.00461359075359069,-0.124164556158973,0.18503857372633,-0.00349890096808219
518,1313,0.730849052059639,0.752881121423232,0.947915658477509,0.192691279632464,-0.0537149548086105,-0.00366296352086644,-0.0922016056182631,0.143445254764033,0.0458880969977956
519,1314,0.732696667975798,0.752373449991929,0.947894982310588,0.188274280331475,-0.0527322740218519,-0.00303369324636774,-0.145440443695363,0.184675821294301,0.0312059432869879
520,1315,0.734518881932342,0.751905945937127,0.947879238800698,0.185814986148041,-0.0507600000719485,-0.00305339861764674,-0.101961506219905,0.230216601527626,-0.0244253246090364
521,1316,0.73633728773499,0.751485998485577,0.947870461522396,0.185319957177257,-0.0477309603261606,-0.00336800032198462,-0.120445351915365,0.227632927471949,-0.056676265226849
522,1317,0.738153804752712,0.751169021789745,0.947869276891275,0.185006433358856,-0.0436832855983048,-0.00409749371634719,-0.149401660684028,0.181056481046447,-0.101133598322391
523,1318,0.739962457635919,0.750922475826853,0.94788059989327,0.182348655152315,-0.0385449141074239,-0.00352018848631193,-0.104154022268533,0.127311293991437,-0.0741419860116442
524,1319,0.741732403475039,0.750826334801144,0.947906799311333,0.179210217720699,-0.0304321446416124,-0.00271972030338852,-0.0715249286018543,0.175439813659722,-0.100630436213445
525,1320,0.743514520739421,0.750783722376717,0.947930968260649,0.178441850585911,-0.0234181971610626,-0.0030181232957965,-0.0949323472660312,0.182325968367215,-0.143885006113897
526,1321,0.745223587898266,0.750847525974997,0.947952745788845,0.17577402427296,-0.015850901129671,-0.00245751919282578,-0.121673132027065,0.156292316727751,-0.09537489950332
527,1322,0.746834062082112,0.750942266131099,0.947977639334888,0.168627401318589,-0.0102966604005725,2.6167083754548e-05,-0.0714042973602664,0.0295935605521195,0.0107138126610183
528,1323,0.74831817079773,0.751051258663919,0.947999443815278,0.160436855952624,-0.00521653522104571,0.00108943032444672,-0.161910856395457,0.00483468077764639,-0.0604727899434804
529,1324,0.749695445734221,0.751121221595581,0.948005361762868,0.151824424817447,-0.00195869944701687,0.00158678287609497,-0.150320769441922,0.0154699906748739,-0.0906319239048306
530,1325,0.750997663255952,0.751185973523023,0.947978849227772,0.144340878955937,0.00133078198635962,0.000592509748484297,-0.239585088861955,0.0443690224457188,-0.146486300782723
531,1326,0.75221581902435,0.751272101240486,0.94791652636164,0.135813474269874,0.00486103928157366,-0.000158848231824435,-0.253125770412348,0.113817274946382,-0.118661743521079
532,1327,0.753339636210634,0.751392147227495,0.947818934845281,0.126521576072827,0.0077732616318721,-0.0013203882251179,-0.334345750545311,0.0793098423450074,-0.111517769791022
533,1328,0.754355578963087,0.751536865191407,0.947689991522909,0.115949766061353,0.0110950000705194,-0.00190200344351276,-0.3535892717627,0.0252326299942546,-0.0591446238775799
534,1329,0.755280671697226,0.751655496454971,0.9475238618591,0.106543277062145,0.0121718770722795,-0.00334891342259046,-0.235873545221559,0.0220369822798912,-0.0922622260267406
535,1330,0.756236495808854,0.751667456352549,0.947297916543223,0.100129338124461,0.0112137587131236,-0.00504802826183837,-0.186362130571941,0.0340399409277925,-0.0376749665966854
536,1331,0.757396582461528,0.75152381441752,0.946994475831424,0.101509084104253,0.00676184166149443,-0.00973116352868613,-0.274167300770303,0.0579138002779949,-0.120445649197153
537,1332,0.759044379732071,0.751067021156829,0.946640967266055,0.111676097682499,-0.00186186998472403,-0.0136733272204022,-0.206842075061929,0.117488047541551,-0.0583732643096462
538,1333,0.761301344504211,0.750311264760204,0.946296902375536,0.128640187271821,-0.0143406896639592,-0.0153845516887828,-0.142503502232601,0.107902367617544,0.0465019961993725
539,1334,0.764370957139275,0.748809359475881,0.945942750683463,0.146554048998162,-0.0269205100297476,-0.0165037441337925,0.028971877255853,0.0842915845074673,-0.00703283833007302
540,1335,0.767154659782416,0.747803786229027,0.945670976529939,0.166250506457565,-0.0370535187510419,-0.017905609915621,-0.139806211875998,0.251933804267172,0.0166840258001302
541,1336,0.769805590592997,0.746917531570877,0.945439066532688,0.182931604684761,-0.0484466430626917,-0.0179562112087593,-0.0117707797957136,0.145178971716033,0.0195505886300403
542,1337,0.772314205807602,0.746171706208835,0.945225186112736,0.196982452519091,-0.0544818464087805,-0.0192921795461716,-0.0472648539756255,0.208727569925017,-0.0509736941103395
543,1338,0.774637997251159,0.745579728152313,0.945024603392712,0.203858119842951,-0.0556016406068356,-0.0197276078061411,-0.0536706109199906,0.222158367264787,-0.0302106265417284
544,1339,0.776760164593675,0.745176090269241,0.944835982400376,0.205934208205853,-0.052112971596636,-0.0198807117028675,0.00490297457818782,0.21829605204706,-0.0274545422926563
545,1340,0.778710146296944,0.744981123886364,0.94465240732621,0.203907122589954,-0.0453710289721593,-0.0208549321864171,-0.0900235504710699,0.183353954457894,-0.0781680650908259
546,1341,0.780498670261244,0.744945299649525,0.944470434229005,0.198781829755619,-0.0369512992583086,-0.0209460505284576,-0.0829233200155438,0.264087466072167,-0.0141506389489176
547,1342,0.782149856213787,0.745012214881526,0.944292758212143,0.192095361652985,-0.0284165894171319,-0.0208532961187353,-0.115648816748421,0.247114884467274,-0.00765728741903886
548,1343,0.783681943635147,0.745124607635048,0.944123094895078,0.184017209551693,-0.0217166218691356,-0.0195597215128317,-0.11556559287486,0.200409560548578,0.0819699997044433
549,1344,0.785101971607511,0.745283844273789,0.94396564482079,0.175189113178839,-0.0154719918355519,-0.0182083010162684,-0.10891416853823,0.144524624786947,0.0855213927425251
550,1345,0.78643582157666,0.745490706391933,0.943818992884083,0.167685663855483,-0.0096977012625053,-0.0170684691629697,-0.122732104589158,0.181294610729383,0.112297108460098
551,1346,0.787688964455788,0.745750414488146,0.943683192926251,0.15866955464034,-0.00524427856851575,-0.0158479617489614,-0.151666620798821,0.101895982198529,0.0902468749321145
552,1347,0.788889652933844,0.746058778588194,0.943556739836035,0.150011324595672,-0.000312073777626191,-0.0143155512818933,-0.168852465834293,0.118192791468528,0.134391072931459
553,1348,0.790051282072781,0.746387770923735,0.943439145860227,0.141743815246838,0.00382063512950048,-0.013389636386878,-0.218691183818747,0.0956835567946973,0.0943706549907964
554,1349,0.791194902118312,0.746725922502195,0.943328939373043,0.133767124655501,0.00808412501375349,-0.012142003314634,-0.281168244536312,0.114054294751712,0.115461584373289
555,1350,0.792344189094753,0.74706469348662,0.943223148940099,0.127237286224551,0.0116778932928375,-0.0117813438645645,-0.311060840839437,0.14974798784809,0.0658152773197857
556,1351,0.793487423045152,0.74742052620638,0.943125373012617,0.121361611195985,0.016006712879052,-0.0109567124489726,-0.252151561879037,0.11269150221804,0.0399852169402326
557,1352,0.794653539744176,0.747772542446777,0.943024302995562,0.118619291374072,0.0188480784033631,-0.0116819514147446,-0.290273394798714,0.100135547549174,-0.0224181618728797
558,1353,0.795858179285298,0.748167285057933,0.942917714524909,0.116475911436397,0.0220305231889746,-0.012167909341945,-0.2330515736004,0.0751698168969863,-0.0396418099811609
559,1354,0.797050987990098,0.748544641414631,0.942806722170333,0.115771375772506,0.0246076317905046,-0.0135054222340542,-0.222692272600839,0.0772876977272448,-0.0921666390738472
560,1355,0.798249683484429,0.748934266838971,0.942690811891572,0.114988671544571,0.0273240225147829,-0.014449921776223,-0.196915383325276,0.120535983662598,-0.0813813300075748
561,1356,0.799445016128359,0.749332152941038,0.942577207924,0.113570032053496,0.0302075920513883,-0.0144298705086644,-0.149545053446341,0.094670786833695,-0.055447279610503
562,1357,0.800645315687033,0.749738822521667,0.94247024285068,0.111338559455374,0.0331491224626828,-0.0142489677392432,-0.14316284525065,0.0904390833732355,-0.0784872092785171
563,1358,0.801830167313007,0.750131359571044,0.942368877316227,0.108500284722855,0.035512921222788,-0.0136995521719575,-0.0597595765137528,0.180480313681039,-0.0681628642569944
564,1359,0.803018404121002,0.750509087211776,0.942273815439301,0.107236302800397,0.0373805437870689,-0.0134459907996939,0.00250226316202179,0.223111135618502,-0.107317067397022
565,1360,0.804229542309619,0.750874467763366,0.942176386575399,0.107426530292113,0.0398117150623619,-0.0142416662811712,-0.129628839333905,0.169475998491084,-0.151661371897693
566,1361,0.805432130229828,0.75121357631475,0.942091827413063,0.106867263312633,0.0406989468321847,-0.0145341781386848,-0.0231914123754794,0.152843844438534,-0.157590723358029
567,1362,0.806612995266043,0.751556660280633,0.942001981643419,0.105723647627925,0.0421404659151691,-0.0141268437311687,0.12874275213766,0.150769345320998,-0.172035101131505
568,1363,0.807808422607155,0.751900432453273,0.941903339826084,0.107651966452073,0.0438074727212425,-0.0155827546412851,0.15323656631503,0.324111967902717,-0.233861334386947
569,1364,0.809048846577198,0.752268255734707,0.941789940740745,0.112807104624042,0.0465278365871479,-0.0178884102035647,0.20382310344528,0.316936491071315,-0.289812741784676
570,1365,0.810339739859399,0.752647912525346,0.941654933471527,0.119181058357488,0.0485539392427084,-0.0213209436354681,0.231939335423821,0.265296923421403,-0.375447600618968
571,1366,0.811651320438775,0.753035389126845,0.941504519777237,0.123739260813905,0.0518771809636365,-0.0236024652649313,0.368803037528384,0.295261366455165,-0.378556120435099
572,1367,0.812940194543252,0.753448518795847,0.941352421275214,0.125315520110878,0.0557473701435099,-0.0238381102531143,0.532409524401039,0.301295660905695,-0.302326022240383
573,1368,0.814206556076292,0.753916141071374,0.941198174384562,0.127731054407924,0.0614067302171119,-0.0246561591371593,0.567409989365685,0.366890370327446,-0.32672416494965
574,1369,0.815444648264536,0.754437876168537,0.941039896357814,0.129748775319897,0.0666807526571275,-0.0259711608416839,0.547878776907358,0.476987444072028,-0.355208589788106
575,1370,0.816616949675996,0.755021981622429,0.940877812919294,0.130084735814776,0.0714851587618261,-0.0267910583625937,0.574996619106282,0.440376510029147,-0.319466235968911
576,1371,0.817705662733022,0.75566837117823,0.940718091527948,0.128369621646993,0.0765719304427083,-0.0273043917868924,0.618640514282845,0.45753911338422,-0.333328079362765
577,1372,0.818716166180049,0.756374499390753,0.940550855502227,0.12651346029156,0.0821020812917539,-0.028317417034288,0.678959196716555,0.403580524229502,-0.38431709379535
578,1373,0.819708095263663,0.757119253243695,0.940359388769595,0.12516091517438,0.0859177935648611,-0.0298379681646673,0.591263641326777,0.336142250472059,-0.35547035708026
579,1374,0.820654337149679,0.75787371251671,0.940146548125123,0.121594412993852,0.0889405088263959,-0.0311366778731796,0.48566411412339,0.309488642903378,-0.338020364331133
580,1375,0.821527725044485,0.758659211024189,0.939922119541618,0.113305555198159,0.0905666763344831,-0.0306299948260089,0.503130819129386,0.214378063926875,-0.266805218211805
581,1376,0.822344054988265,0.759462364313949,0.93968493148851,0.104727278085618,0.0907987508971248,-0.0303218128802274,0.471356012039643,0.0446653395366494,-0.256847555780746
582,1377,0.823113764282547,0.760286599372877,0.939437713226379,0.0957094068546329,0.0904022034834849,-0.0299065562737453,0.444539579456671,0.0318726613793172,-0.207126035843621
583,1378,0.823821392371513,0.761128248534608,0.93932732051079,0.0843759590164232,0.0913032864858607,-0.0263478696087531,0.385274668486084,0.0184312120220171,-0.048432683667536
584,1379,0.824534473142691,0.761968630185615,0.939290378867029,0.0797970760062191,0.091911817443982,-0.0235604876787846,0.432897696429566,0.136298085572259,0.0141861102768857
585,1380,0.825312909267891,0.762794709586759,0.939237550209621,0.0801519733846931,0.091750577873113,-0.0204598909432073,0.278264882523157,0.169989092880738,0.178115906649639
586,1381,0.826103728714499,0.763596498728992,0.939473168418451,0.0793973040876204,0.0907666119468131,-0.00996794333710689,0.0683960710460987,0.153319930839606,0.495525189623854
587,1382,0.827045459890093,0.764913518753165,0.939545750453193,0.0781730885239575,0.095117803141748,0.00039252210957455,-0.0224665972291789,0.0867055526746577,0.771762028648593
588,1383,0.827703934373004,0.766034063393289,0.939620693835546,0.0770170616821926,0.0965243898000042,0.00987113341119744,0.277492061456833,-0.0143771152635812,0.841574790629059
589,1384,0.82844536645714,0.767405390592526,0.939701573027518,0.0800100919221376,0.0987442024334967,0.0154589686071531,0.164009658323091,0.0231659245867418,0.686311573006118
590,1385,0.829118037326124,0.768715270807883,0.939750702601347,0.0830531190345749,0.0986675310658284,0.0173581437301312,-0.159634867555854,-0.131450817790377,0.485548221724708
591,1386,0.829706729795359,0.770051910693826,0.939749245362579,0.083222325259572,0.100581254809517,0.0171421068466514,-0.199330687419627,-0.197131196342336,0.325411616010139
592,1387,0.830162946555785,0.771298275041361,0.939696101519554,0.0803769778805226,0.102446290860922,0.0138018242615033,-0.249422457077559,-0.153022595244279,0.0623222125034911
593,1388,0.830551742886389,0.772471527251117,0.93957549366376,0.0772889005803433,0.104889791383823,0.00720332112797785,-0.367360263249267,0.0816689645772539,-0.183127914242768
594,1389,0.830918174365612,0.773566349593918,0.939388453031062,0.0734099636055022,0.107658346265922,-0.000404620969206371,-0.360341850933895,0.242970911737621,-0.331746845883032
595,1390,0.831332690388411,0.774617687582073,0.939150276108819,0.0704186605132361,0.11043997254332,-0.00671675142726835,-0.305139435994837,0.289277053332702,-0.309200792477557
596,1391,0.831865016614072,0.775647270345277,0.938881458296251,0.0711722528181865,0.112915047991994,-0.011845621347676,-0.216065525997295,0.362375688963615,-0.248256784381011
597,1392,0.832552154665018,0.776692208860736,0.93860734419907,0.0738147499092839,0.116060065417183,-0.0146610045711413,-0.0983995338036136,0.377966060772512,-0.138277950906935
598,1393,0.833416784143212,0.777750731372642,0.938345980991118,0.0774486507549084,0.117977527877449,-0.0148733832788524,-0.0517384034502006,0.395540806196384,0.0312900119426737
599,1394,0.834437754221891,0.778837478979358,0.938117287441091,0.0823684021299927,0.1185724442006,-0.0128031586840116,-0.0538081068923284,0.322205331917919,0.18475808922689
600,1395,0.835608677049174,0.779964229574808,0.937922861072392,0.0884942294594223,0.118525954933013,-0.0100495023389627,-0.081425707334245,0.322126802548858,0.249866232969991
601,1396,0.836892945204139,0.781124206335193,0.937757227821733,0.0946540758546643,0.117848102003862,-0.00675112288513479,-0.121783758962782,0.239674456662323,0.296989799880595
602,1397,0.838247653474654,0.782326472519579,0.937619327270109,0.100180018944051,0.11803498010008,-0.00303003074157618,-0.157851327136693,0.158880034731141,0.33758031131199
603,1398,0.839644317314028,0.783540090757743,0.937501933611956,0.105941717345654,0.116862378651463,-3.71157275322064e-05,-0.181482142879884,0.065270163838169,0.326797875117281
604,1399,0.841036409631441,0.784778222656975,0.937403334075731,0.108318022389381,0.117955038608635,0.00331118824395692,-0.225199579576475,-0.0524829109075641,0.30545103111948
605,1400,0.842416635742292,0.786015954181233,0.937310605692266,0.110666959898211,0.117789721711651,0.00538813710059953,-0.25056366378273,-0.0618211321279856,0.256947826431495
606,1401,0.843783157379766,0.787262522729476,0.937215836808011,0.112752902031015,0.118345241229317,0.00628763565209175,-0.241808028320441,-0.0987870401871461,0.169805766231249
607,1402,0.845125031231298,0.788516823261294,0.937119353713702,0.113904951602679,0.119504138891269,0.00719552562262417,-0.223634027799829,-0.135230340364039,0.159808105085941
608,1403,0.846465789257738,0.789759226290732,0.937018017298054,0.116961447125616,0.120934665383533,0.00632656127841148,-0.27303113371901,-0.206998213362003,0.0380665450565929
609,1404,0.847812303790689,0.790991195259616,0.936913330097872,0.121371492720824,0.121559271086524,0.00444758087940959,-0.298646411991773,-0.175927352594669,-0.0239378374743063
610,1405,0.849186466735316,0.792218281264771,0.936800314682657,0.126115262111453,0.122715476252467,0.00306702245209002,-0.313386214837018,-0.0750724402394456,0.0142446198484046
611,1406,0.850586567402889,0.793450274754466,0.936685772689869,0.13153657276098,0.124027415577307,0.00207316333702184,-0.230751792043629,-0.0351828790320394,0.0379185717942351
612,1407,0.852016643670765,0.794701439203007,0.936578479325955,0.135883360047417,0.12583541445778,0.00207033279561864,-0.168137966004905,-0.0725249997703988,0.0834828808252033
613,1408,0.853481507309117,0.795960446400933,0.936529674694997,0.140170807249458,0.127134876618567,0.00330967871532175,-0.0855833520571411,-0.0612822420924735,0.109104121084369
614,1409,0.855006965126168,0.797224463317545,0.936503213507479,0.144893703172006,0.128647509136054,0.00375301160276508,-0.0739586699923897,0.0156406209593431,0.0901118091623906
615,1410,0.856541507776296,0.798524357891664,0.936460807355257,0.147126017728965,0.130512024953052,0.00577181225899999,-0.00368426063070846,0.00590526093257333,0.159271767306789
616,1411,0.858095359002113,0.799853383824231,0.936431749309274,0.149426455717416,0.133208283602739,0.00720801098475522,-0.0423487008332489,0.0846047875813163,0.122442008986353
617,1412,0.859650458319609,0.801228309074937,0.936415446823082,0.150115014805688,0.13621287117057,0.00890854852141772,0.0377909308788677,0.11634905989057,0.126579430148667
618,1413,0.861173702669114,0.802633703333861,0.93640716073536,0.149113019793273,0.139699255414969,0.00984060994136242,-0.0422226567533506,0.0915875923797088,0.0754147967868367
619,1414,0.862675852344837,0.804089504478614,0.936535839471907,0.148371898001592,0.142652613559721,0.011014475593677,-0.0132522540563212,0.138669832802202,0.0379275701882237
620,1415,0.864177795895434,0.805600633039824,0.936699290774287,0.149345152014914,0.146622448949111,0.0112395521089214,-0.0903863150402895,0.135567373774407,-0.0385082048063958
621,1416,0.865675253716109,0.807149440604194,0.936980277429768,0.148570696092386,0.149460695396014,0.0120665563561611,-0.124380371667577,0.192740017394972,-0.00241853791845029
622,1417,0.86713063033586,0.808715180975572,0.937190403324188,0.14766244659663,0.152342829386086,0.0134078486523851,-0.0941349386676895,0.107189952407812,0.00419136014321874
623,1418,0.868360109898886,0.810324666394546,0.937352388657891,0.142873859074078,0.154190470757245,0.0140864796342556,-0.124424484353755,-0.00259433958070291,0.018798619025604
624,1419,0.86997571742988,0.81180667700262,0.937549277631445,0.143394688701085,0.153421617955103,0.0158724494239805,-0.0878814922769194,-0.0651902236667702,0.087968634159585
625,1420,0.871141387556312,0.813386484150712,0.937787534252991,0.138538364602223,0.154408055853155,0.0177744771198898,-0.0970261357461148,-0.0256187320241959,0.100492681831913
626,1421,0.872525304973561,0.814820055590079,0.938101304965699,0.138326216409437,0.153157765710321,0.0189164406054733,-0.168716629383876,-0.157658417943431,0.0206069521498394
627,1422,0.873871894451465,0.816363980357678,0.938428461711023,0.135934114384953,0.151741335429258,0.0209635306037399,-0.153333831832192,-0.109469580686694,0.0577341864625481
628,1423,0.875297775203492,0.817898550470047,0.938780939101862,0.133777167330021,0.1493795098275,0.0226193178804438,-0.267297157566784,-0.223782791160608,-0.0177469006342655
629,1424,0.876677402424928,0.819452024848461,0.939149492547549,0.131601695841686,0.14759407857498,0.0243050151550543,-0.273162139233841,-0.270625337337806,-0.0420547020990102
630,1425,0.878085612862471,0.821038272071191,0.939527819670813,0.130424556678342,0.14819836580181,0.0259317637505547,-0.272649428932832,-0.230355572126267,-0.0393319912379071
631,1426,0.879507680382422,0.822644814062802,0.939919937346788,0.131461115012015,0.14918261426501,0.0263735251186614,-0.273418867911559,-0.21850074813406,-0.0968025843416843
632,1427,0.880926894946456,0.824248970665878,0.94033202131241,0.131269963789566,0.150118399736297,0.0274125217471303,-0.225868749704193,-0.192121630040548,-0.065144571420484
633,1428,0.882328708133018,0.825853752508762,0.940767101031863,0.130960859502507,0.151475242560721,0.0280873094234677,-0.257308662159932,-0.164259052178085,-0.0937727982929911
634,1429,0.883683690137636,0.827445682001846,0.94123619706538,0.129610801596362,0.15311365389754,0.0290391459382845,-0.283929411736772,-0.0981914199305673,-0.0716073762453269
635,1430,0.884971404545817,0.82903788870662,0.941745330659567,0.126538576871198,0.154707386459976,0.0306511085903448,-0.262412470345395,-0.0729423699868228,-0.0517432822761395
636,1431,0.886215294694487,0.830637676144217,0.942290571011198,0.123100957045776,0.156500945448677,0.0321661121779922,-0.307064136862663,-0.0503106554344494,-0.0648844819820442
637,1432,0.887366254387552,0.832204460703428,0.942873991646879,0.116385901453725,0.157170116153672,0.034997040331933,-0.192133256816447,-0.0508753869608341,-0.00915212317986553
638,1433,0.888495281805463,0.833773695331865,0.943487196888719,0.111788230346665,0.156513585771437,0.0361774598072217,-0.273676960667852,-0.10273521481171,-0.0918313650669632
639,1434,0.8896056133221,0.835302302986574,0.944113123961045,0.10688186860562,0.153483170569678,0.0378257012808645,-0.189373059364686,-0.18923718064942,-0.0731424152240169
640,1435,0.890737749319726,0.836755992293201,0.944731349391363,0.105335427146692,0.148710806925391,0.0376421777110633,-0.199209563061516,-0.247489834043698,-0.155227687733029
641,1436,0.891878442559086,0.838139080654614,0.945320441159048,0.104463541713974,0.142480133570853,0.0373177722007387,-0.217055909888713,-0.303151670722661,-0.139030841741581
642,1437,0.893025837181247,0.839440255938988,0.945862307955364,0.104416049788222,0.135991693449211,0.0358210047771095,-0.185025583475021,-0.306207707372977,-0.19578441096713
643,1438,0.894166887382644,0.840653704159527,0.946346331496469,0.104824792923632,0.128438045857126,0.0340393621185821,-0.154185641829668,-0.285782427529726,-0.166879476853898
644,1439,0.895291523737038,0.841775576820258,0.946761561480759,0.105275121040315,0.120815374084083,0.0315475308161389,-0.184186904454122,-0.305715713694563,-0.164300656183719
645,1440,0.896416134031022,0.842771052803226,0.945810584225118,0.10483325958511,0.113492396700698,0.0242730129868187,-0.127885751036612,-0.287622909358983,-0.193644053799463
646,1441,0.897617063054102,0.843568949902957,0.94502611039956,0.106637918889764,0.103044792438422,0.0167517642322076,-0.114838826722928,-0.201126407293571,-0.178979622670791
647,1442,0.899085874398672,0.843758725199128,0.944236213627529,0.112809111532068,0.0813652222649422,0.00866404445486997,-0.153979610461922,-0.250470032961473,-0.1419926140922
648,1443,0.90087911564433,0.84302758598162,0.943371150534098,0.125057788122958,0.0483647081736555,-0.000771887288688546,-0.0480235483643771,-0.16301025709128,-0.148725915475298
649,1444,0.902852103669379,0.841686785069779,0.942434612796595,0.136938319104197,0.0115988741225668,-0.00985540105041474,-0.0825653383404641,-0.174627069822123,-0.0997088032470055
650,1445,0.904809646913733,0.840242682190361,0.94149206069353,0.145055976117361,-0.0184949082738482,-0.016173716438748,-0.0729899908770417,-0.170345586035125,0.0565351459728376
651,1446,0.906637362324591,0.839008388204762,0.940592044679469,0.149692963983996,-0.040206453495975,-0.0211373975728456,-0.103733294399403,-0.267169393492356,0.0913076754890336
652,1447,0.908287803624722,0.838067685255873,0.939751043356645,0.15022353262398,-0.0539903760141019,-0.0252227028408643,-0.20479189833093,-0.32251934574075,0.111887647878214
653,1448,0.909667954767137,0.837460063832401,0.938970623974602,0.146665666216197,-0.05986136980872,-0.0265043381239902,-0.0654482403639042,-0.23629453586207,0.20602425260235
654,1449,0.910906454793824,0.837151073183071,0.938281479139852,0.142155413869664,-0.0594882107367189,-0.0287481777445793,-0.195698386717718,-0.206336920792312,0.144995608121736
655,1450,0.91196851838143,0.837120395674656,0.937660560267918,0.134464408245004,-0.0545254112586719,-0.0295367959532992,-0.0562272348868399,-0.155005393539444,0.185846785184835
656,1451,0.912907621742051,0.837387578844325,0.936930851693316,0.126107828858637,-0.0463961693255626,-0.030346685117621,-0.0260463072680993,-0.150086545471975,0.114896761132019
657,1452,0.913704767871377,0.837793823787582,0.936452958256926,0.117656579132355,-0.0367466046797299,-0.0301241259248275,-0.0823760702452377,-0.219234977521767,0.123781758005668
658,1453,0.914489675143828,0.838334375171633,0.936041128511516,0.110028134713412,-0.0244909915171071,-0.0308133701098267,-0.00229528925498392,-0.165030269302029,0.019812032996628
659,1454,0.915296066563342,0.839038169798542,0.93570445969886,0.103830760695395,-0.0119109431835862,-0.0312721809422382,-0.0673760476125565,-0.238996586679652,-0.00238659366784087
660,1455,0.916104539557819,0.83979351824225,0.935197125176875,0.0996435861930146,0.000830656336420908,-0.0346305639860142,-0.0362163436304866,-0.304427526084999,-0.0960257270470961
661,1456,0.916968789183091,0.840532816955505,0.934725359826676,0.0979001519246318,0.011270836924942,-0.037998484941697,-0.0611027088811578,-0.21525874867582,-0.13596732701511
662,1457,0.917855903475167,0.841241351777625,0.934316622600183,0.0963139879424573,0.0197583016880981,-0.0391459927874778,0.011208984184574,-0.204009736694394,-0.0965061730435756
663,1458,0.918747200810993,0.841914953808604,0.933989017869992,0.0951217544450201,0.0251583009441675,-0.0388063947943461,0.0560027038409223,-0.193824176188267,-0.0679313073387128
664,1459,0.919707797005073,0.842517665676536,0.933739396175187,0.095295586994596,0.0295157939403006,-0.0371806601799148,0.0538162520283812,-0.101522578061426,-0.0380503838975619
665,1460,0.920710402153053,0.84305305148114,0.933554574451688,0.095887359620423,0.0319435167777013,-0.0348131778888116,0.0523926704512108,-0.0693076476715649,-0.0280904578539024
666,1461,0.921706520538591,0.84357255339273,0.9334172252068,0.096380564377082,0.033371676507355,-0.0318402923459929,0.035016487205301,-0.103220873391496,0.0102206467555133
667,1462,0.922662789577727,0.844113174156978,0.933313312929774,0.095417029801238,0.0346207772574507,-0.0287582492914354,0.0229598713650141,-0.115169592584995,0.0404447953376538
668,1463,0.923615821217082,0.844650733169648,0.933227941326885,0.0958883745716316,0.0363096138638619,-0.0270005456544641,-0.0187751163367904,-0.0990949132901832,-0.0250449540564298
669,1464,0.924512484317165,0.845178189707569,0.93316080455245,0.0929223605151445,0.0371176336593743,-0.0242222171199175,0.0376003731729354,-0.131489243075618,0.00442156971769145
670,1465,0.925422435355208,0.845706871260917,0.93309916807845,0.0915057540849861,0.037791630173109,-0.0226502616881103,-0.0891071617772294,-0.117968753010317,-0.0144194402723406
671,1466,0.926305962730351,0.846197832703724,0.933045584533077,0.0895020175307289,0.0381912435997178,-0.0204559535255378,-0.0306267014277847,-0.199128798458894,-0.00419517983896582
672,1467,0.927126411823586,0.846606560810428,0.933002614487647,0.0879024528824355,0.0365665654890907,-0.0190747332578586,0.0118387510855348,-0.164503747151821,-0.0413958442956908
673,1468,0.927823760658867,0.846947718030569,0.932974110190992,0.0857749540843843,0.034837684785663,-0.0181512824800501,0.00635964270847446,-0.187457584837828,-0.0597344039598365
674,1469,0.928480429782491,0.847277955093182,0.932944692732062,0.0811058191107269,0.0319015573166613,-0.0175334022660558,0.00676661182416733,-0.168047904307362,-0.11257263708172
675,1470,0.92915051001766,0.847603964212,0.932913303109649,0.0783944606786458,0.0292548200385583,-0.0173086241801822,0.015438271064907,-0.166176767434738,-0.110350163618859
676,1471,0.92978825881653,0.847937019945988,0.932891584161171,0.0744949284224272,0.0272492699020101,-0.0160900083045386,0.0913853807670774,-0.219501588401546,-0.0812538506891443
677,1472,0.93035539609529,0.848239162876538,0.932885268972365,0.0740082146379147,0.023966124384629,-0.0158821832392525,0.0606773255812819,-0.196601789542839,-0.0931660991671749
678,1473,0.930980346190092,0.848483670490065,0.932865887422021,0.0710735241421063,0.0207531205637301,-0.0149941432436042,0.04346841338913,-0.158146258939135,-0.0857793489299055
679,1474,0.931618123618589,0.848710525475958,0.932817930484442,0.0698123057043868,0.0172940171731483,-0.0145611406568106,0.138289020747952,-0.175155357098473,-0.0550911436870089
680,1475,0.932285798335531,0.848933288287541,0.932784656692858,0.0697530649076254,0.0148789558100224,-0.0137380337508274,0.146972133720247,-0.15085995816397,-0.0451880854466935
