,Frame,CoM pos x,CoM pos y,CoM pos z,CoM vel x,CoM vel y,CoM vel z,CoM acc x,CoM acc y,CoM acc z
0,748,0.500285175779432,0.240736496740999,0.959354057579915,-0.0488135099723238,0.0321469968558487,0.000764273947436949,-0.0651585821580306,-0.050031893190775,0.0445487639974512
1,749,0.499802976348425,0.241057372349177,0.959371347209073,-0.0493994759516162,0.0322229795252056,0.00133471355151687,-0.0201341957389738,-0.0187641378356011,0.0365393019340447
2,750,0.499314709108814,0.241377940268123,0.959387730432382,-0.0500363505106224,0.0319545635430406,0.00143011061459566,-0.0507842037375524,-0.0108338799697525,0.010953973566628
3,751,0.498816600289382,0.241704207192144,0.959401346955874,-0.0505509670912075,0.0316093544707873,0.00134751428484101,-0.0495635052390897,-0.0271496931651921,-0.00383396244344837
4,752,0.498313024483303,0.242038489467163,0.959410679157207,-0.0507419732354348,0.0311548304631266,0.00104478659912629,-0.0161571389904487,-0.057719659990607,-0.0166592515261578
5,753,0.497815944681589,0.242382174438953,0.959416180105362,-0.0506002685421289,0.0310181479473431,0.000625769862612922,-0.0101471624978466,-0.0807706715523009,-0.028729856007627
6,754,0.497331129005405,0.242719273517384,0.959414002096353,-0.0503695965072281,0.0302533537167654,-8.81485659582942e-05,-0.0447185916720207,-0.0397922718993027,-0.03777720464146
7,755,0.496845338824062,0.243071569526992,0.959411477462425,-0.0501644824859883,0.0304177426903929,3.76964213630716e-05,0.0463461073231503,-0.11497204824543,-0.00666983312872962
8,756,0.496367438211042,0.243412304156659,0.959411264554161,-0.0501245407377643,0.0297212298233572,0.000178506550159702,0.0419603116862136,-0.063670185013967,0.000263444238740282
9,757,0.495903538222203,0.243752979291845,0.959413746706285,-0.0495508573901933,0.0299039861199774,0.000506455915517637,0.0513024066908576,-0.0793100351640886,0.0201047194116825
10,758,0.495454505930901,0.244086721415745,0.959418071363048,-0.0484402134649884,0.0301946936487954,0.000561003015299881,0.0498731886455068,-0.0155159807955543,0.0117238026818123
11,759,0.495013515449236,0.244413527791747,0.959422767618657,-0.0477650580653129,0.0302183170371218,0.000536102997516761,0.00492082482539929,-0.028561549180065,0.00655626844514372
12,760,0.494565249914913,0.244732155348144,0.959429757387408,-0.0476933754368014,0.0301191629893913,0.000737714731201581,0.0137239048965933,-0.01023652529117,0.00958838391014383
13,761,0.494106389638275,0.24506020928581,0.959437609433633,-0.0480384172869433,0.0305696971395715,0.000948269037281224,-0.0209074124548595,0.0340858892060108,0.0157783776155158
14,762,0.493634903661396,0.245407359451096,0.95944455039575,-0.0481886311734725,0.0313074951197653,0.000788836325111205,-0.0172860308193704,0.0271517989257644,-0.00585909179094202
15,763,0.493151577237681,0.245774372053836,0.959453705230419,-0.0487551139770231,0.0325276749464203,0.00131004967608288,0.0348946183074574,-0.00941410101686045,0.0245536453171302
16,764,0.492685032278187,0.24613806944678,0.959458209341607,-0.0481260634567777,0.0320051263543958,0.000717742463347571,-0.0259670493146067,-0.0293316978855316,-0.0079093843380682
17,765,0.492231387764813,0.246501326699253,0.959460188398191,-0.047984431812951,0.0319382701782624,0.000787482892055806,-0.039607528193885,-0.0513192349721156,0.0246069210548633
18,766,0.49178104619235,0.246859695992287,0.959461792130981,-0.0481600469006383,0.0320480804036882,0.000458561276435222,-0.0231616902743776,-0.0425417413118868,-0.0276176488181997
19,767,0.491336709440588,0.247213548196851,0.95946128005453,-0.0478512508100415,0.031522938419962,0.000577687666275275,-0.031720298968253,-0.0439673785654937,0.0223587353756901
20,768,0.490897400051851,0.247557691910717,0.959458535554743,-0.0467031948429175,0.0306857702419979,5.23962135301108e-05,-0.00390170878947091,-0.0913353508428294,-0.0111754260349421
21,769,0.490455802122096,0.247883901647288,0.959455176111193,-0.0463352135969489,0.0299006140556927,-0.000179594447558561,0.0169169985684467,-0.0499843248301277,-0.0142118776389821
22,770,0.490010642438195,0.248193169772543,0.959453064003352,-0.0461762898240317,0.0288904171470562,-0.000395140549153705,0.0562760922484,-0.0601998516659586,-0.030772795729836
23,771,0.489566104791861,0.248481766264694,0.959451264037115,-0.0461516883113378,0.0269298146991378,-0.000541660497047661,0.0629956999582275,-0.0501768734871486,-0.0318524583566325
24,772,0.489125374899978,0.248753808697225,0.959450284883811,-0.0459449338731571,0.0260193125880166,-0.000653006116152161,0.0611938874240497,-0.106939353380866,-0.0215928490804863
25,773,0.488690463451291,0.249008478446953,0.959451056617549,-0.0458283091251483,0.025055951794264,-0.000492092999133527,0.0707637649204589,-0.00469998667532818,-0.012111125802088
26,774,0.488272829964783,0.249265361074568,0.959451910580069,-0.0449818112817265,0.0242069873284733,-0.000389307595166679,0.0402987207666224,-0.0346286509562568,0.000388919613618568
27,775,0.487871995284901,0.249523088266064,0.959449677697755,-0.0439811725540448,0.0240036272224085,-0.000469527720480718,0.0340728933996272,-0.0807435834685809,-0.00954879455963163
28,776,0.487478064285472,0.249775990386191,0.959445391785688,-0.0425022917587323,0.0238679564146416,-0.000743137027916628,0.10067797641247,-0.0204924167661923,-0.0338575872599844
29,777,0.487097620959843,0.250032202820559,0.959437826579635,-0.0413940045769556,0.0239677386739128,-0.00088545992747334,0.0547990349019938,-0.0321886621431955,-0.0122379344567659
30,778,0.486711664320471,0.250294982024816,0.95943355902708,-0.0416518444298761,0.0246294324636975,-0.000294088481193167,0.018338886057919,-0.0204025042622669,0.0261643531053276
31,779,0.486302106130144,0.250555237808406,0.95943848100238,-0.0424348084557395,0.0240580052039032,0.00077746279884141,0.108099979686071,0.0124459760531476,0.0450734202586201
32,780,0.485887493795577,0.250812959276145,0.959449538025638,-0.0425393211758102,0.0242025981675677,0.00149428512562193,0.0768951393297567,-0.0399871437987538,0.0555897963474904
33,781,0.485478062287441,0.25107616692227,0.959459824056253,-0.0417087960882277,0.0249807996048525,0.00131825560684827,0.0412708326048365,-0.0350940491290036,0.0180577174995606
34,782,0.485072827995191,0.251341649311427,0.959470714194631,-0.0413444260772303,0.0255389373340583,0.00162996976800845,0.0397385676028825,-0.0288134083555277,0.0397333201054857
35,783,0.48466778826918,0.251600343398448,0.959478640987462,-0.0409788727772438,0.0247178790638014,0.000967463408354025,-0.00266028558201745,-0.0825569318458196,-0.0271964421104953
36,784,0.484249476500561,0.251849135631995,0.959483733205951,-0.0414244192270698,0.0236102066769695,0.000408925109945373,0.0217946859986414,-0.0739880665089282,-0.0558707090606301
37,785,0.483822315939599,0.252099921296567,0.959483764295072,-0.0422157203690202,0.0228287049583312,-0.000471927789978417,-0.00776988352825736,-0.132769386250019,-0.0859088647962851
38,786,0.48337549848237,0.252325452121169,0.959487683187246,-0.0440802711906252,0.020121656805983,0.000173815182146731,0.0749918439291794,-0.124275181693066,-0.017615922357248
39,787,0.482937618574898,0.252542668850741,0.959490369033016,-0.0440406502204738,0.0185962594554175,-0.000315027536067315,0.0386775406423587,-0.13000277968177,-0.0424431606568606
40,788,0.482511898880611,0.252754060430798,0.959489786891475,-0.043173630985283,0.0173754228563273,-0.000840266516550173,0.0534001897649919,-0.0883470774400031,-0.0357392859250916
41,789,0.48210520360642,0.252971114605262,0.959486163540874,-0.0424957096422454,0.0172315652946545,-0.00125237383096494,0.022240669053459,-0.0421937254217102,-0.0230513909971694
42,790,0.48170849671072,0.25319730027943,0.959484820620722,-0.0422393125479071,0.0178590853744311,-0.000775400269855189,0.0299267598553933,-0.0249410633299784,0.0257356905025566
43,791,0.481336908561033,0.253411345758904,0.959486363582637,-0.0408611456913423,0.0174111814086757,-0.000464895726389684,0.049064367808404,-0.0827194398931398,0.0381836898108059
44,792,0.480984073293888,0.253623571603161,0.959491840941457,-0.0400218006912655,0.0183963139229115,-4.02772291689757e-05,-0.00605358532722722,0.0209403579465134,0.0399549478465372
45,793,0.480633293200197,0.253843668565104,0.959499795330864,-0.03933697238056,0.0188888047018183,0.000444591317819741,-0.0367757352269975,-0.0131485849566805,0.0482848448756592
46,794,0.480288922392028,0.254061692888919,0.959509688272813,-0.038726041152436,0.0188334153291394,0.000927402547897283,-0.0322301589078606,-0.0163283635482403,0.0470262716811655
47,795,0.479936862555537,0.254272975323111,0.959520925477817,-0.0381796333695597,0.0190546811682656,0.00142089880214719,-0.010856983603283,0.00017129276186119,0.05035678522669
48,796,0.479582979290748,0.254486692164241,0.959528735689124,-0.037225419407482,0.0189183939839134,0.00129085432936855,-0.0384186061638653,-0.025188591354849,0.0379651583349142
49,797,0.479215276555108,0.254709206039896,0.959538044008887,-0.0374461608905205,0.0196715035264274,0.00206097265310654,0.00986071564164905,0.0111644815271261,0.0729098141480367
50,798,0.478844294816168,0.254949421984754,0.959546720545665,-0.0376110998575855,0.0206367657282048,0.00235752675601231,0.000201473642506294,0.056604235011909,0.0519048225332612
51,799,0.478477255184984,0.255206357584364,0.959552479800809,-0.0373568199969832,0.0214923640572771,0.00258412349974988,-0.0284173400901907,-0.0114136854588326,0.0664441614809625
52,800,0.478117828851724,0.25546253277699,0.959556785365315,-0.0370660139612978,0.0212066522594104,0.00291375646533641,0.0135705674991373,-0.0254435275692925,0.0646587815550127
53,801,0.47777105590937,0.255724937173544,0.959558772659087,-0.0368321995889054,0.0220241725376426,0.0031196981519401,-0.0189371937770779,-0.0624539754935257,0.0615330958910446
54,802,0.47743963928779,0.255975423358427,0.959561017844121,-0.035770249465005,0.0215142915837334,0.0036899799628528,0.06986215833437,-0.0325553979821223,0.0867773636467187
55,803,0.477136989383743,0.256225902443988,0.959557717298373,-0.0336802566877006,0.0213741470454864,0.00345667254503409,0.00329703908041929,-0.0680719413300347,0.0778114194328279
56,804,0.476851593549562,0.25648289104764,0.959553778610209,-0.0323849559279332,0.0225910972728978,0.00393345970870938,0.0282638084826739,0.044080028792672,0.103995959245729
57,805,0.476587649798293,0.256749532649572,0.959548856090324,-0.0310771989618767,0.0230009723165389,0.00403237099017461,0.00797836810782648,0.0125227244537649,0.080170556870917
58,806,0.476338117540336,0.257030057069801,0.959542116115617,-0.0300948137024688,0.0243036116955643,0.00386595305823001,-0.00871439736326622,0.0121890683672485,0.0455214471729019
59,807,0.476100706513317,0.257316787197265,0.959532076119081,-0.0287899000519378,0.0249791764638575,0.00364799801199595,0.00624417898217172,0.0268090636051311,0.0436013756465021
60,808,0.475870624727575,0.257612554689035,0.959518608377626,-0.0278177663627773,0.0255719414739674,0.00326742981258068,-0.0122810331906865,0.0447677608224224,0.0231329488603485
61,809,0.47564408748375,0.257922077299766,0.959501348620876,-0.0272799367567339,0.0260324208090267,0.00280520012117619,-0.0315114742064038,-0.0243525396218924,0.00645288652948471
62,810,0.475426617635368,0.258224701472277,0.959479628704173,-0.0264771800189419,0.0258194621743451,0.00194205892666946,-0.0308973063682536,-0.0181187954770967,-0.0234370455342148
63,811,0.475204217980578,0.258530664023679,0.959456389383509,-0.0268092824865173,0.0258513543522048,0.00182955495601897,-0.0429954964075501,-0.0426666084279365,0.00602618910726225
64,812,0.474991867040793,0.258819440702943,0.959429071785983,-0.0258416952200621,0.0255369143868751,0.000892895698471514,-0.0324693307922389,0.0317187535432717,-0.0239118807682515
65,813,0.474786038982341,0.259103478029955,0.959398385478004,-0.0251858570791167,0.0255580045419469,0.000378419556491437,-0.0289700357213997,0.0232127799733992,-0.0101235654709072
66,814,0.474592428176778,0.259383049872758,0.959363989192849,-0.0242648335136154,0.0258318649759962,-0.000127458458649352,-0.0433068370525961,0.0116347221857025,-6.90805680931506e-05
67,815,0.474398823933155,0.25964887482981,0.959329910085448,-0.0244522890411691,0.0257077321551878,-0.00037768542891584,-0.0362997086391212,0.0440537299481915,-0.0136473851236428
68,816,0.474205025298038,0.259908861374936,0.959294778297141,-0.02379364368267,0.0258708811879431,-0.000553581474228789,-0.0264318095116822,0.0239919967443816,0.00922146686603644
69,817,0.474017498522005,0.260151635886838,0.959258746209397,-0.0232341049504492,0.025820365731187,-0.00102163833930537,-0.0134631441710736,0.0545073853034214,-0.0178259537040162
70,818,0.473830480519129,0.260380739688708,0.959225797942124,-0.0237915515944332,0.0249882316313523,-0.000772486215993452,0.00454360460304481,-0.018653954791695,-0.00147690666508601
71,819,0.473666238581926,0.260584612028287,0.959187309930746,-0.0219977609772926,0.0236510669697357,-0.00181749391190985,-0.0086449490740563,0.00611792795178259,-0.0475872301928589
72,820,0.473500995521393,0.260767197191367,0.959151235729389,-0.0223276538330702,0.0220543403405442,-0.00163556607752076,-0.00901083169637918,0.0171281883827457,-0.0155437642886559
73,821,0.473334320285242,0.260935839798663,0.959114921347436,-0.0222141181912188,0.0211044629581601,-0.00230652993495155,-0.0409212228856326,0.00998438265753313,-0.061354799554011
74,822,0.47315126357285,0.261086874255876,0.959083104391314,-0.0224241787524224,0.0194388751224661,-0.00192518538359347,0.0314003455373627,-0.000479437292236265,-0.00810642009020728
75,823,0.472970502214357,0.261229951337508,0.959054525369562,-0.0222589352552029,0.0180747045850898,-0.00182435094091489,-0.018398465383765,-0.0169229175467827,0.00877939625384903
76,824,0.472796353810847,0.261375562706698,0.959027901077215,-0.0214069886389929,0.0175390779910055,-0.00180494619515191,-0.0171205326168115,-0.00372027601597836,0.0178841060784137
77,825,0.472626950335076,0.261525174125102,0.959005843553383,-0.0210450712586091,0.0165904354697981,-0.00133760340926255,0.00721967881405237,-0.0420210280769285,0.0358933907141258
78,826,0.47246904989294,0.261672842307983,0.958984524440799,-0.0202747288088174,0.0157457529241088,-0.00143355171996369,-0.0296900627428009,-0.0099415686516372,0.00899086292494252
79,827,0.472301456092688,0.261833123408985,0.958968464008256,-0.0204427162548303,0.0161544686806115,-0.000569503545721479,0.0262205078735959,0.0332392892363317,0.0432892194310514
80,828,0.472124681992469,0.262012383007667,0.958954841155189,-0.0208670890565786,0.0160654952647931,-7.03940888946414e-05,-0.0430716113548332,0.0149507703241168,0.0361856958089171
81,829,0.471925628533964,0.262218643276619,0.958943172438515,-0.0211532164477011,0.0174475037935336,0.000199291728600407,0.0284028319258335,0.0106599463665131,0.00630692542136673
82,830,0.471726107870418,0.262436453150725,0.958925380756826,-0.0208416002811268,0.0178883348362251,-2.69290809422402e-05,0.00318631826975269,0.0114738743310474,-0.000549653806820447
83,831,0.471515225746488,0.262655333454442,0.958905402331075,-0.0216208183242979,0.018148204514343,0.000197885925248537,0.0240709424318489,-0.00493918971336068,-6.07794982468326e-06
84,832,0.471299633534015,0.262862725853728,0.958881578520181,-0.0223337530378398,0.0178739229644732,1.70834415347844e-05,-0.0154946088647482,0.00802089497627213,-0.0152518953501515
85,833,0.471083720262153,0.263062124298396,0.958852678907075,-0.0226977908674334,0.0173241352139689,-0.000486882994476738,0.0115523987776574,-0.0320125866417727,-0.0432355296849531
86,834,0.470881787429241,0.263249353325419,0.958819133642077,-0.0227399704428181,0.0167968535154362,-0.000507310614688108,0.00789542501816165,-0.0103574961416195,-0.00167962600106061
87,835,0.470691906881447,0.263416635080158,0.958781401052994,-0.021736384082618,0.0151119315035316,-0.000888225122804625,0.017517585404174,-0.0202046259030699,0.00022581968106681
88,836,0.470514054603215,0.263593493328476,0.958740030625697,-0.0204689893035124,0.0162097327089419,-0.00112426305788229,0.072546893038386,-0.0278875589936718,-0.000621033410919334
89,837,0.470331319875781,0.263762029242297,0.958698326279905,-0.0204778176543809,0.0155028376932324,-0.000865592906143147,0.0282535184442248,0.0312554982292046,0.0225986821160162
90,838,0.470137929227846,0.263947580629812,0.958655153814055,-0.0204238294020559,0.0161939801978967,-0.000790967399537005,0.0336457950729934,0.0222820100252685,0.0142538332243275
91,839,0.469938599939225,0.264157773962011,0.958607700338468,-0.0205132186672164,0.0171747136630196,-0.00108364277847691,0.0240024392596904,0.0239134857818177,-0.00601419179751118
92,840,0.469744986739279,0.264385416132772,0.958532664134523,-0.0202956613122407,0.0184447896764124,-0.00181382903052349,0.00281092985193564,0.0160379510280081,-0.0251724154701278
93,841,0.469556721712019,0.26461909383784,0.958430441545459,-0.0198219396533095,0.0194551125959257,-0.00277374010791401,-0.0157000357220297,0.00782657518780405,-0.0233292043467276
94,842,0.469370798590393,0.264847791350757,0.958367936061047,-0.0200826087728767,0.0202349965551943,-0.00301121245341856,-0.00278530309306343,0.0143446210221118,-0.0155033360274497
95,843,0.469152962268728,0.265122441572002,0.958303958201617,-0.0204389954101324,0.021890559170629,-0.00308384823937204,0.068403714871517,0.0210479729823883,-0.00805351721918523
96,844,0.4689310715799,0.265416924272888,0.958203852412313,-0.0206904175749523,0.0231002710738537,-0.00361651913058194,0.0426369556117138,-0.0198120435114708,-0.0115264530782372
97,845,0.468702780242727,0.265697120995055,0.958143061600693,-0.0207714210009947,0.0244463249926906,-0.00342344213098996,0.0943181062304819,0.0211436201400087,0.0148533228928384
98,846,0.468435640514955,0.266012260114208,0.958081935509382,-0.0205251768424797,0.02494384813259,-0.00386138200375667,0.0636132744879285,0.00390880490463542,0.00208053411767551
99,847,0.468158246448282,0.266342039086453,0.958023152124903,-0.0216130915303401,0.0266423421957393,-0.00377874223911898,0.0229634328538586,0.00406047905719328,0.019052657430467
100,848,0.467846229860464,0.266690015504697,0.957970167259596,-0.0237766755371761,0.0275829597193017,-0.00338134448099226,0.0263092570021069,0.010744285078279,0.0247364038636024
101,849,0.467527443239235,0.267041261433456,0.957923010019578,-0.0254972480272882,0.0282195015367982,-0.00263584041909473,0.0252835770496298,-0.0110132457154512,0.0641785682020338
102,850,0.467210295167053,0.267397726742198,0.957880912145127,-0.0267527705098999,0.0290475901662734,-0.00207100063332509,0.047461013885664,-0.0340297595902862,0.0547608868898308
103,851,0.466911212686434,0.267748709695586,0.957840274085049,-0.0277480492126232,0.0294441835633076,-0.00147552974435208,0.0185353854531193,-0.0270329885404266,0.0611023205687549
104,852,0.466631336572272,0.268112968026298,0.95779243571936,-0.0276049879848485,0.0309667419386353,-0.00181481955086498,-0.0292389064486903,0.0466409010623204,0.017900046460166
105,853,0.466362448054997,0.268485033869482,0.9577376687464,-0.0274841347165601,0.0317152262504227,-0.0017551576289678,-0.0166542307403052,0.0139527470079489,0.0370889264293694
106,854,0.466122158218895,0.268853290970592,0.957673938345862,-0.0265731853477557,0.0322478390471341,-0.00200661633799924,-0.021023082846536,0.00520038717520492,0.0287784585390713
107,855,0.46588761284259,0.269205011649141,0.957607917245848,-0.0262161829292486,0.0327364661952854,-0.00193039825754252,-0.00434248187876292,0.0108955210606339,0.0383493723766444
108,856,0.465652932962683,0.269532528719299,0.957542045892175,-0.0256308085271926,0.0322395331569512,-0.00169089431246149,0.0526843163242793,0.0391434638554167,0.0456128763474908
109,857,0.465422953258661,0.26985122640746,0.957473539519447,-0.0251189077220434,0.0324867896780781,-0.00207000788849541,0.0448454505323766,0.0267510532251345,0.00490851174558077
110,858,0.465201365297711,0.270154391585986,0.957403859560383,-0.02476040349429,0.0320111305918149,-0.00214856636182225,0.0639047936607641,0.0266267609136046,0.00852262153776758
111,859,0.465002413184436,0.270444625997026,0.957326746777439,-0.0230304769407445,0.0310236250318125,-0.0031533185541206,0.0162533553872509,-0.0220315853565866,-0.0228325757274145
112,860,0.464810199760969,0.270720658893699,0.957206550677646,-0.0232857235085962,0.0301341453345801,-0.00343190454517909,0.0428257190115943,0.0145669418893759,-0.0296777492951585
113,861,0.464627477418173,0.270962689350128,0.957138535612857,-0.023694811468831,0.0297416466964219,-0.00341302007441328,0.0249926393454532,0.0735559136154989,-0.0202121178929122
114,862,0.464395650514174,0.271237129062257,0.957065974555019,-0.0237106867529686,0.0293013224396178,-0.00371964998304204,0.0656208560700728,0.0552475993217977,-0.0314306667777675
115,863,0.464181111019958,0.271509752825357,0.956987815406945,-0.0228068786515445,0.0288389572049611,-0.00464042212012817,0.0355360347013932,0.00697074499482004,-0.0479381451678882
116,864,0.463956101064553,0.27179043836345,0.956904072817084,-0.0224191719630435,0.0278380315101854,-0.00530666994948944,0.0336137948660606,-0.00844959920251703,-0.0390619206039371
117,865,0.463747641609764,0.27206706357758,0.956811746572006,-0.0213462454670798,0.0268857873785304,-0.0064054156630644,0.0125482930391198,-0.0194205851845119,-0.0611670772319967
118,866,0.463543203169225,0.272347549092228,0.956712935027473,-0.0212592150631698,0.0262802847341469,-0.00695784539051225,0.0230082701588938,0.00576178182793534,-0.061099170324443
119,867,0.463329855812915,0.272632082197609,0.95661479339414,-0.0227614947190937,0.0263711354836787,-0.00662563712940442,0.0413478374508379,0.00327275608523812,-0.0423527484336226
120,868,0.463123034963178,0.272898013433666,0.956513039899203,-0.0228911379689883,0.0247679271559707,-0.00705511034272272,-0.00131759832776533,0.0033561783507141,-0.0546607560779855
121,869,0.462933152613211,0.273131300615478,0.956387526889145,-0.0229848969122494,0.0228996376954892,-0.00727117598844891,-0.00567338320814277,-0.0594305631151295,-0.0699906697797054
122,870,0.462731281630736,0.273341012712964,0.956265956652027,-0.0236126603182862,0.0212630443203494,-0.00732918311681915,-0.0261490764912352,-0.00439817389459149,-0.0676771006253154
123,871,0.462550641101189,0.273508439276273,0.956118350042769,-0.0234749503224134,0.0189351834940428,-0.00797228005132824,-0.0204159630175213,-0.0418133006436055,-0.0790063058988809
124,872,0.462402714410483,0.273629693512498,0.956151766414393,-0.0218408422204036,0.0158790031381516,-0.00783105234121522,0.019924422058059,-0.0273054592282809,-0.107801786228028
125,873,0.462299049166644,0.273711277430543,0.956172666177891,-0.020176308148059,0.0135317459354374,-0.00677647710106501,0.0111644939388527,-0.0176518931754127,-0.0298720832571573
126,874,0.462124570813299,0.273811795821906,0.956211686784225,-0.0187084294506275,0.0116442923683567,-0.00601540385313685,0.0518824058355302,-0.050167787531247,-0.0326397363492199
127,875,0.462035537554608,0.273863977930304,0.956246016486298,-0.0156867014389808,0.00978008171189332,-0.00573523445043656,0.0565679122009225,-0.020054786015761,-0.0303478718325269
128,876,0.461917202602375,0.273894926272182,0.956269561525415,-0.0151183805921761,0.00760673772649632,-0.00459767796825281,0.0426811381410566,0.0222109023658672,0.0103379360458056
129,877,0.461816954243374,0.273897983660108,0.956320223877802,-0.0149602634420256,0.00608333939814018,-0.00317356290070893,0.0572141139364751,0.0142180611921713,0.0304204267911644
130,878,0.461671415862814,0.27391139937257,0.956378007892731,-0.0158232264831478,0.00515683052836742,-0.00154853215605077,0.0434696876104779,0.000805151563299447,0.0510558801732879
131,879,0.461522847568783,0.273926465058473,0.956427815511318,-0.0159740665745107,0.00445706357356269,-0.00030405756984003,0.0582172226354334,-0.0502132628216524,0.0639161510147881
132,880,0.461363201461669,0.273950974468417,0.956470927886801,-0.0163694747693884,0.00405801715959547,0.000199435081033633,-0.00263996077560858,-0.0488850745098643,0.0345973310789759
133,881,0.461204776882334,0.273971930281301,0.956509079468043,-0.0167749068062179,0.00304139882197593,0.000687676510169189,-0.00360064363333637,-0.0944571954261414,0.0348572897091107
134,882,0.461043016274598,0.273987637479254,0.956538945394216,-0.0169398215481346,0.00145678150490496,0.00062305725218429,-0.0107386909579559,-0.0897565162054492,-0.00201428062946335
135,883,0.460878967889938,0.273989979001674,0.956561885628298,-0.0176805218859753,0.00037627406457567,0.00075501267214743,-0.0314264849387067,-0.0781176683134743,0.00387242067655981
136,884,0.460717659864545,0.273981151985869,0.956574620090817,-0.0165853005106031,-0.00082225727587727,0.00015734250511826,-0.0164526937177788,-0.0790203226368951,-0.00479003234836819
137,885,0.460569657796719,0.273963927348791,0.956451754227518,-0.0164285969037431,-0.0015663689728587,-0.000202864258392621,0.00517788835790863,-0.10291056761649,0.0192198624268608
138,886,0.460403798481591,0.273948374581176,0.956350780805774,-0.015992614225814,-0.00283856007370127,-0.000585993556220644,0.0246944443278893,-0.0968727654356027,0.0300552597733975
139,887,0.460269022883737,0.273924628920195,0.956262596018717,-0.0146762824871069,-0.00395237480355004,-0.00104460276429442,0.0198830528348697,-0.0635737115440251,0.0344288926254505
140,888,0.460159903201948,0.273906719361472,0.956277064281523,-0.0140085323026125,-0.00428135870738387,-0.000440197891076233,0.0553746567802119,-0.0636823353535511,0.0383825234639172
141,889,0.460048893024189,0.273892506196348,0.956314489107393,-0.0139728213884716,-0.00501522608199415,-2.66073793594032e-05,-0.0143190732822163,-0.0588708230055778,0.0221428828695211
142,890,0.459966864615047,0.27387458115643,0.956357290472082,-0.0133333800062702,-0.00598805787403353,0.00038003664604298,-0.00801450676469382,-0.092522374644353,0.0137736752542775
143,891,0.459895414735559,0.273868940733533,0.956400953817026,-0.0121195749276855,-0.00539768354408462,0.0003111185344259,-0.00803319265915333,-0.0401265315313608,-0.0114207994470602
144,892,0.459842326968274,0.273856985842909,0.956442085801882,-0.0117640853324879,-0.00621053051996004,0.000355836960032089,-0.10123071527067,-0.0478783989629871,-0.00562625985033736
145,893,0.459781919185838,0.273836866083344,0.95648130134237,-0.0114952840380241,-0.00694698320906383,0.000494080343824668,-0.0270510420469883,-0.0692578314679419,-0.0229350936968167
146,894,0.459733729453909,0.273809445419308,0.956511372920774,-0.0113719083213969,-0.00727382144223517,0.000217029678015763,-0.0591677895551654,-0.0564760892139022,-0.0432909810750878
147,895,0.45967334297282,0.273771451815758,0.956536557832839,-0.0113387258525557,-0.008186619239467,0.000316549137986158,-0.0148533611171083,-0.0533113268885595,-0.0233087855231127
148,896,0.459599956023583,0.27372283830324,0.956557705487993,-0.0118018804296055,-0.00899530774404176,0.000368351513400094,0.000777598804262715,-0.0425123032606512,-0.0296456434367265
149,897,0.459531086773382,0.273669766123163,0.956574762919043,-0.0115258165295584,-0.00986416852425074,0.000740696074200173,-0.0194396859289246,-0.0904047007596204,0.0314137141476112
150,898,0.459479448526995,0.273608089215638,0.956595620417511,-0.0105761648161946,-0.0106386349852396,0.00134213814284976,0.0277491160584901,-0.0413561767147126,0.0534170150078623
151,899,0.45946654962795,0.273556051131261,0.956614795460994,-0.00843447203037721,-0.0102436136199369,0.000823015397260684,-0.0201106813735716,-0.0846722697726509,0.00466418216824481
152,900,0.459481866782234,0.273513870826899,0.95663599568481,-0.00712336257820564,-0.0095592360101474,0.0010700693680763,-0.0254966446782859,0.0204080981090199,0.027178123355571
153,901,0.459532189489988,0.273487584163655,0.956588246787188,-0.00605841320780641,-0.00892583967196489,0.00122715577318259,0.03198283986685,-0.0842185407170267,0.0110052107326142
154,902,0.459589765136999,0.273470720987536,0.956523483927267,-0.00473351442905403,-0.00859299847759691,0.000720742775105517,-0.0599037186676726,-0.0530906298946298,-0.00612187499434519
155,903,0.459672749082714,0.273464450348326,0.956472187924006,-0.00353102683056688,-0.00868242265662533,0.000533083702442263,-0.0220004269225464,-0.0914615243589928,-0.0153738445488823
156,904,0.459758492163231,0.273459038419442,0.956434232264963,-0.00197075003437778,-0.00881287069374584,-5.98700058656768e-05,-0.0148705654765651,-0.12653453286071,-0.0509943660934705
157,905,0.459858826675454,0.273453558764631,0.956405019815828,-0.000196250873054375,-0.00835652568215107,-0.000459663514966715,-0.00673606872730566,-0.128142796150608,-0.0382597905373927
158,906,0.459964553372146,0.273438189196775,0.956382030660583,0.00156139423543326,-0.00858959766963148,-0.00062228472053499,0.0255936229354077,-0.116656235107295,-0.0299113756611217
159,907,0.460073574022141,0.273422632325136,0.956357245605292,0.0037682398219025,-0.00812612281094877,-0.00108255168814418,0.0347243186680368,-0.0842389143293166,-0.0373382502942292
160,908,0.460186237042649,0.273408218403811,0.956326123072946,0.0062285368940091,-0.0070742302286267,-0.0011421859678969,0.0534343510245783,-0.0559478043761836,0.0195204892331445
161,909,0.460306107709647,0.273388141977654,0.956290636814539,0.00847489019569235,-0.00654001487439754,-0.00133169953222323,0.068249964813024,-0.0125451763705314,0.0204602765402498
162,910,0.460425813747658,0.273376432437862,0.956254614808591,0.00953654552239815,-0.00504559019656917,-0.0010238181278833,0.0725333777982329,-0.025019913372199,0.0448687692654143
163,911,0.460540513544439,0.27337548638491,0.956223710741234,0.00934256607646823,-0.00389601851854063,-0.000347456243858883,0.0160934271866868,0.0414715836335843,0.063910849502151
164,912,0.460646431711918,0.273401506473586,0.956202648707195,0.00880338544367766,-0.00287626508132229,0.000253302346554757,0.0365113828836402,-0.0547497059258749,0.0442628060070292
165,913,0.46076044576442,0.273455353489326,0.956184906873211,0.00961134552560472,-0.0015826962415624,-3.94887803120308e-05,0.00435590024615189,-0.0662624827296267,0.0113801747504028
166,914,0.460892839536202,0.273525498365901,0.956171262458956,0.00953805288498644,-0.00133395846725409,0.000476030729808592,0.0313655168184551,-0.0472932694375871,0.0289606438970183
167,915,0.461017893899571,0.273613963489169,0.956160502072774,0.00890817479373368,-0.000289219729056817,0.000303416707283302,-0.045018003446824,-0.0982937317518002,-0.0176972100091685
168,916,0.461139703546145,0.273713789120519,0.95614625831346,0.00902254074375894,0.000108900344440434,0.000521782741909834,-0.0190487413551389,-0.0871371667144148,0.0295369556722849
169,917,0.461248471360297,0.273815387796703,0.956133932275983,0.00861579228194363,0.000744348894856891,0.00118667561098514,0.029371570147965,-0.0691449795108492,0.0466752095946772
170,918,0.461356785352911,0.273918003312508,0.95611904038825,0.00864054240945538,0.00198321841286671,0.000733411475580315,-0.036515684982598,-0.0421101057662769,-0.00279903338016644
171,919,0.461436934067252,0.274017179781776,0.956110160806151,0.00672423803026699,0.00265604865467556,0.00129720097639848,-0.0197774156519104,-0.0209538930092194,0.0127983339007381
172,920,0.46150305796579,0.274122000960385,0.956099601333341,0.00599264295135827,0.00337835209747247,0.000867766931730997,-0.0878738288591296,-0.0265461644076797,-0.00425701650315788
173,921,0.461547955535531,0.274245228120988,0.956090050645792,0.00456225081827162,0.00508336904451214,0.000925507265811988,-0.0548645100190956,-0.0397036656158029,0.00408260437483987
174,922,0.461588840582498,0.274367388914745,0.956076364437376,0.00474378855450314,0.00545197105808033,0.000109689731553266,-0.000384387126072394,0.000591944089743322,-0.0387915927961297
175,923,0.46162543037619,0.274496204034413,0.956058604331105,0.00426386477027537,0.00595868427418398,-0.000700278976167133,0.00521720552873519,-0.0300503515333255,-0.0623092280291465
176,924,0.461669432077457,0.274624859926419,0.956036062877095,0.0043244301937528,0.00598573078232084,-0.00124731770968458,0.0275246397056821,-0.0386623075313044,-0.0393619092639172
177,925,0.46172076023951,0.274747838573703,0.956014087342743,0.00417912973496758,0.0064863140654022,-0.00168679832284822,0.0365701476966565,0.0260647621159934,-0.0507881497709639
178,926,0.461771401309397,0.274879801583339,0.955995009115544,0.00371782971371466,0.00720601090856196,-0.00175225256867148,0.0106323369269692,0.00264778544640657,-0.0247113084515705
179,927,0.46182748177958,0.275017902546003,0.955980577374092,0.00335833895640625,0.00758648750201593,-0.00180186367950551,-0.0172487335945799,-0.0115009013674428,-0.0209749559989839
180,928,0.461886609401335,0.275172175680904,0.955969933705881,0.00293854732760755,0.00866564497306179,-0.00193746089737341,0.00187523703342379,0.0125018962553847,-0.0412871516894501
181,929,0.461960216970204,0.275355161761998,0.955959514096046,0.00351930169111025,0.0102869305145309,-0.00196700818663746,0.0248930330182188,-0.00519988633202704,-0.0237354433093764
182,930,0.462049517929634,0.275560824430244,0.955950737998672,0.00391776919342772,0.0115417357750973,-0.00168456663486832,0.000387447222969333,-0.00236990105464796,0.000378724280050156
183,931,0.462138385624969,0.275791933711646,0.955944792159773,0.00375233699725203,0.0143921977557514,-0.00134319627336326,-0.0106484336551215,-0.000329755547951629,-0.00925308962780191
184,932,0.46221985534016,0.276019337004722,0.955944398294589,0.00323337623567098,0.0150341122935262,-0.000491041958182931,-0.0150129066394252,0.027348601147395,0.0250244350426238
185,933,0.462297834415981,0.276248902856389,0.955949495650206,0.00248377481399471,0.0161154741569388,0.000314181508567852,-0.0263265272162308,-0.014682725643913,0.0205854252361622
186,934,0.462358630448363,0.276457298765821,0.955960930111255,0.00245240904896433,0.0167796156150657,0.000536598730881341,-0.0386647984423534,-0.031374558599582,0.0101587838739311
187,935,0.462401493664819,0.276643199217367,0.955977708496699,0.00214940103819717,0.0170550096523948,0.00106954601630574,0.02314058775256,-0.0154525566307712,0.0170063133619364
188,936,0.462447302873898,0.276806216787808,0.955990192723678,0.00335823861355748,0.0165254750151646,0.000496396529047264,0.019143730009623,-0.0112818413225054,-0.0243081375458611
189,937,0.462486146727167,0.276943408814835,0.955997833691901,0.00351750603791707,0.0152443744219497,0.000265697317508857,0.0140126320667256,-0.0384341649372834,-0.017812357859708
190,938,0.462534158382796,0.277057430472669,0.95599884545595,0.00458178935187092,0.0142728908125721,-0.000328245359717003,0.0471362641228112,-0.00105661323121235,-0.0296074383883131
191,939,0.46258325154631,0.277157130866294,0.955997895136942,0.0049905189848824,0.0130649065773335,-0.000466678782691673,0.0880078945428633,0.0125071518756604,-0.0287370590157187
192,940,0.462648753779123,0.277255666065728,0.955994036517686,0.00583710831667148,0.0123602343665856,-0.000920659198961698,0.0375963468342679,-0.0348373815471671,-0.0267943222923303
193,941,0.462714020456343,0.277338383545146,0.955997000280719,0.00550506544621131,0.0104962565202403,-0.000469872888663281,0.0636524440538054,-0.0492229629870794,0.00116883447102413
194,942,0.462797094302092,0.277410445934978,0.956003180769247,0.00601543732427381,0.00868154700840824,-0.000700100107425291,-0.00822339249518639,-0.0328972324243454,-0.0135154055469223
195,943,0.462886295704265,0.277485439488516,0.956014497075949,0.00570859918912248,0.00773988572947749,-0.000365399129563376,-0.0053939499693237,-0.0217927912621211,-0.000762988520954522
196,944,0.462987728715013,0.277569727535317,0.956030253337945,0.00561830451696168,0.00730589356520823,-6.46805098568218e-06,-0.0130854835160383,-0.0190710882438237,-0.000961744111168374
197,945,0.463094747519794,0.27765303790351,0.956050734299268,0.00578504437681865,0.0067345354716894,0.000698992887593598,-0.0455741095013779,0.0195185016899147,0.0364715794526065
198,946,0.463205126487905,0.277745120028241,0.95607413541564,0.00609634695857699,0.00756150114382926,0.000974736855104294,-0.0719049907507523,-0.0232098496350269,0.0200069198340196
199,947,0.46330442773373,0.277821303807028,0.956099578407818,0.00617147438177191,0.00744432580700423,0.00157090747568166,-0.0526377177985319,0.0615347688770083,0.0381668568912069
200,948,0.463396919464514,0.277884433406936,0.956121150901583,0.00648057966109255,0.00706163620093599,0.00186837509327806,-0.100367866877165,0.0388224729348273,0.0543497531237195
201,949,0.463467472011136,0.277928355967934,0.956139207087125,0.00662624008109613,0.00656547037435352,0.00233880033806979,-0.0286204105031172,0.057968332313837,0.0555159363006971
202,950,0.463525874739951,0.277958888973459,0.956147002408131,0.00679080988771837,0.00604179409852193,0.00218698653436196,-0.0558003206669902,0.012104823166731,0.0499300935974282
203,951,0.463572871532293,0.277967793423385,0.956149702115507,0.00637128422708761,0.00520313447085287,0.00256790393198083,0.0134742251103108,0.0404865286504072,0.0635955681135181
204,952,0.463623196210021,0.277959292484476,0.956147244987596,0.00602009791285137,0.00391707593659554,0.00259976785960305,-0.024143759666069,0.0361410541665155,0.0584369991846764
205,953,0.463680569155861,0.277946652455445,0.956142885001209,0.00546313982331666,0.0029421179438013,0.00292845853374674,-0.0108605186104771,0.0124936291729591,0.0685321156070425
206,954,0.46376499500154,0.277931807530274,0.956136455402137,0.00508092054498276,0.00138308841650877,0.00309108960523843,0.030091409915616,-0.00408101244376938,0.0350612948664548
207,955,0.4638629068462,0.277911945679995,0.956129495887981,0.00499458979496378,0.000811575385516963,0.00265466506609875,-0.0560145405309091,0.0517882640372806,0.00679486505999598
208,956,0.463986969358377,0.277901612522639,0.956119237658025,0.00553139325666319,7.2245398024662e-05,0.00241391384012342,-0.0434702462885675,-0.0230828943785663,0.0155252807084509
209,957,0.464148559307986,0.277892327796498,0.956104848370768,0.00672121356679379,-0.000682995903925693,0.00187924846415204,-0.0644045525150245,-0.00713369020240196,0.000478889782238986
210,958,0.464339074342032,0.27787723049818,0.956088367652039,0.00862854464585044,-0.00115298153277403,0.00133168777154827,-0.0352053823736402,-0.0156052377080197,-0.0126729172758925
211,959,0.464541912377042,0.277851012673565,0.956070555978133,0.00994514348736088,-0.00112611978841185,0.00090089405930642,-0.0463344281217045,0.0719863053903776,-0.0173631483705739
212,960,0.464739269934967,0.277818311545734,0.956048926142457,0.011207088086298,-0.00169003055848035,0.000489431526502842,-0.0740483686617682,0.0541469232180656,-0.00232959073947569
213,961,0.464916144577084,0.277785687852951,0.956019670779888,0.0120146376737886,-0.00181513282561182,-0.000268156085283394,-0.0914838384875672,0.0376963713494515,-0.0133296012523297
214,962,0.465050593956637,0.27774014307427,0.955990093514633,0.0110590986408069,-0.00223192266764449,0.000164129146862229,-0.0174803117727615,0.0359230212550564,0.0343863639197741
215,963,0.4651592971291,0.277689197640941,0.955958400306977,0.0106803319202557,-0.00226234736376578,-0.000116192930997876,-0.0215141775773,0.0449311136167869,0.0141257702684965
216,964,0.465250759490834,0.277631920798975,0.955922640436386,0.0105777217945682,-0.00290991358766979,-0.000881115426797844,-0.0313805745244799,0.102729394881998,-0.0180070565548755
217,965,0.465332281214363,0.277584743315854,0.955890349238049,0.00940796167127781,-0.00312541444568404,-0.00061861472872039,0.00718698645651019,0.00018844955926242,0.0267124561928657
218,966,0.465419113399548,0.277539136892503,0.955862576564488,0.00906603678900679,-0.00347091664758607,-0.000783394688467852,0.00357610405782654,0.0488342680779791,0.00679736397225299
219,967,0.465516345536866,0.277505764723473,0.955835951861479,0.00872759382984076,-0.00314438456167001,-0.00122163582866124,-0.0411509931312733,0.0516586396378811,-0.0109122059246929
220,968,0.465607117217145,0.277458586659974,0.955869126301654,0.00716030287799075,-0.00299731537219688,-0.000627668118846206,-0.0507667993287087,0.0661990674075102,0.00549394209846825
221,969,0.465701148416717,0.27745412538465,0.955930019448529,0.00735079728322371,-0.00285583331355013,-0.000545922197908771,-0.0580511112619717,0.0220027261856911,0.00302526413933244
222,970,0.465785310020245,0.277433609577478,0.955995068629913,0.00635324885016933,-0.00285451390699357,0.000436096053061527,-0.0183290823068308,0.026432960166025,0.0272668989019755
223,971,0.465861765786065,0.277423881996563,0.956063981663192,0.0055659714331226,-0.00253065515316562,0.00163558737900533,-0.0141744029138596,0.0451478543886182,0.0615434925847394
224,972,0.465936324543774,0.277394972489721,0.956134038720482,0.00542663135157959,-0.00363923606789509,0.00220521081839934,-0.0290494272360564,0.0175791064792291,0.0334844388587278
225,973,0.466026664271875,0.277373923428229,0.956195092730557,0.00520814153339758,-0.00435814575843743,0.00219683321091704,-0.109743831832751,0.0195669791814006,0.00595081169757178
226,974,0.46609072608297,0.277347104351885,0.956256223644733,0.00394938665461409,-0.00441463955883883,0.00259063115133795,-0.0488896928683393,0.0228708909167438,-0.00120362588772025
227,975,0.46614855789919,0.277331772795899,0.956308766666176,0.00288299688405117,-0.00389914233000588,0.00256801315512737,-0.0920736859677039,0.0523497030387678,-0.0084077809381194
228,976,0.4662043992708,0.277343351437829,0.956347601782459,0.0027201015753471,-0.00319594530480534,0.00213383374653548,-0.0751200648332699,0.00907645606819204,-0.0220712296839341
229,977,0.466269649363667,0.277376747961026,0.956372224069243,0.00298034810283307,-0.00200665542133422,0.00138052835238546,-0.0590650292080092,0.0395962128636111,-0.0387942422963871
230,978,0.466344469032981,0.277423307233649,0.956383915859384,0.00336738485429295,-0.00100776692131597,0.000538542597119741,-0.0665804970147583,0.0273363614789512,-0.0480935296075912
231,979,0.46641950928295,0.277472693123674,0.95638836001857,0.003316835412363,-0.000183012521346389,0.000233675057258238,-0.0498603557190371,0.0520928586739604,-0.0213854805745031
232,980,0.466488898514514,0.277527592532206,0.956389637960291,0.0027406255690645,0.000535302629694231,0.000481477198995189,-0.0316603309968819,-0.0127803074182535,0.0123207977992385
233,981,0.466571499361543,0.277573192645828,0.956385616840962,0.00334493087023076,0.00103217636401409,0.000442226463771334,-0.020350143822396,0.0490458940943912,0.027625546407349
234,982,0.466663052499733,0.277607547176778,0.956378598186307,0.00400934460042996,0.00128417461682973,0.000566248214416228,0.0158560237177622,0.0144929723499791,0.0312495870404258
235,983,0.466774318403777,0.277627471758343,0.956367090772077,0.00507707859297256,0.00134377538644417,0.000446221858197994,0.016006487225685,0.0116495719755707,0.0181719371093228
236,984,0.466904829227008,0.277638844319459,0.956350101641676,0.00606347901092612,0.00115050108028824,-1.83524052607731e-05,-0.00174485438965613,0.0265849563891685,-0.0157167408803828
237,985,0.46704095682835,0.277659913268004,0.956329612972823,0.0063218993141285,0.00159420905715336,-0.000174520652866536,-0.0383261406625941,0.0210240104305175,-0.00309079879210725
238,986,0.467172833369659,0.277696911659721,0.956307288938742,0.00647746588617598,0.00176096176476503,-0.000612739089025342,-0.0638433049505491,0.0563139582762347,-0.0271800094012341
239,987,0.467291638924979,0.27775342918753,0.956285665213506,0.00609494647539691,0.00232615243832291,-0.000806967190807432,-0.0303154977618983,-0.00586303290718588,-0.0299947669065431
240,988,0.467401202462172,0.277807933926197,0.956268676623324,0.00607433043363632,0.00198447613438817,-0.000763960838248834,0.0093395991999167,0.0118768531973855,-0.0149353471849989
241,989,0.46751651513612,0.277871496676117,0.956251942069873,0.00709840114664574,0.00277088336325546,-0.0015921763142493,-0.0110204486989609,-0.0372681197519933,-0.0441276057483718
242,990,0.467627914409493,0.277926366993448,0.956241104220467,0.00649490315918918,0.00278483495158207,-0.00145488520375681,-0.021205324868368,0.0203363139367119,-0.0230140228336913
243,991,0.467731612001832,0.277984312649696,0.956237356660643,0.00610662000050061,0.00352332581463914,-0.00136948924991424,-0.0109177002690254,0.0305677218840339,-0.0217480259215953
244,992,0.467824813080302,0.278033634740576,0.956242248434068,0.00560935692647947,0.00319054154712881,-0.00110804539839644,-0.0251969422603361,0.00457646972622982,-0.011239454056685
245,993,0.467911395761808,0.278075539979052,0.956249419143375,0.00606372049931541,0.00327681414862982,-0.00135747605094902,-0.00810553124388246,0.0198766985249647,-0.0301430720501292
246,994,0.468003881031745,0.278089343736136,0.956285623617859,0.00610843712261014,0.00289613703403683,-0.00122426813288713,-0.0342952853335121,0.00213750472230468,-0.0129324058184109
247,995,0.468073600275409,0.278096122524645,0.956339795249218,0.00613970030419487,0.00172327891153798,-0.00117711626957935,-0.048646329851021,-0.0125435607845282,-0.0140053266504563
248,996,0.468100747801996,0.278045289993672,0.956330404397721,0.0045367460612391,0.000229637482548077,-0.00093010801212691,0.0270330454473863,-0.0244819930260576,-0.024747409227784
249,997,0.468109302705463,0.278004452824236,0.956313510891141,0.00308862189522362,-0.000985943749188917,-0.00121549277153326,-0.0357913709799726,0.00456816882197944,-0.0298298014643188
250,998,0.468091039535806,0.277929819424503,0.956292747111823,0.00160964409633941,-0.00254019589699529,-0.00152167397391892,-0.0251353156693606,-0.0384445282719476,-0.0245784524951403
251,999,0.468066985641825,0.277845698530576,0.956268268184779,0.00106982542422132,-0.00456422074660579,-0.00217287203840788,-0.021484753212312,-0.00684352772819772,-0.0286497805972011
252,1000,0.468035061118875,0.277742503588045,0.956246991005311,-0.000167322570922067,-0.00647126212416921,-0.00216565601159827,-0.0108165190924951,-0.0519874742446403,2.56366801698416e-05
253,1001,0.468000126228457,0.277624821719526,0.956235511536666,-0.00177956517514523,-0.00848797650549993,-0.00162815379190191,-0.00656387078900772,0.00309862391711542,0.0219138123370425
254,1002,0.467972418920095,0.277499272825448,0.956235002779147,-0.00255457854221754,-0.00989060544637341,-0.00101910896507373,-0.0236036972344178,0.0134418331047454,0.0443502104863762
255,1003,0.467963704109313,0.277376172082539,0.956244442738069,-0.00178046566061947,-0.0108851707679037,-0.000537391519836995,-0.0146883184186057,0.00976456747727464,0.0616834928893295
256,1004,0.467960253011813,0.277259497463427,0.956268151739156,-0.00212218610423831,-0.0110502462877526,0.000631326279685274,-0.0141188216922448,0.0183190613730583,0.0820774747537806
257,1005,0.467953285478611,0.277161670908469,0.956303490941367,-0.00252689029297731,-0.0097048713657216,0.00143676425811257,-0.0235846447420724,0.0753764385117772,0.0536999522068419
258,1006,0.46793595882992,0.277092890048116,0.956344851637534,-0.00332873167917897,-0.00834580281332485,0.00209583379396992,-0.0780851892433676,0.0486902566087202,0.0463305725621192
259,1007,0.467903260583463,0.277048733305867,0.956385730228858,-0.00383711000515961,-0.00737382622463066,0.0023102352009898,-0.0825769989602516,0.00632366069296446,0.0266024976541136
260,1008,0.467855503203223,0.277020445033992,0.956425623012875,-0.00455482115814078,-0.00636761528700759,0.00256878393246216,-0.0487448879763273,0.0333403781476176,0.0242072975273834
261,1009,0.467798613564158,0.277006408790645,0.956463250042876,-0.00590899799210103,-0.00570609033013105,0.00255130706576364,-0.0781199183538361,-0.0138303361689803,-0.00561871152375636
262,1010,0.467735303971645,0.276995418385974,0.956499334477424,-0.00686174522697859,-0.00583098980667268,0.00302308555822635,0.00476324357404604,0.0197174706327638,0.0159495372354073
263,1011,0.467691066240819,0.277007636246193,0.956530563472536,-0.00666812855156491,-0.00418346786580984,0.00267042843776136,-0.0382756249733523,-0.0218826942720503,-0.00517327386453428
264,1012,0.467654938984106,0.277030008212064,0.956560273176144,-0.0069844607922128,-0.00345754858771939,0.00272203260744759,-0.0456950959357307,0.00622349451674492,0.00306941842863071
265,1013,0.467626240210364,0.27706090149569,0.956587579487961,-0.00696430880414165,-0.0029013408328141,0.00275911059593127,-0.0311611096317668,0.0119685328757946,0.00666720167923001
266,1014,0.467628141183879,0.277097961080582,0.956607276671504,-0.00634041426744006,-0.00238658166131102,0.00248141360392481,-0.0468500536314519,0.00809082700361537,-0.005732360701864
267,1015,0.46763487513559,0.277129568631485,0.95662558951917,-0.00534842435357407,-0.00128002777926703,0.00243986623707456,0.00945441450514941,0.0321171741264237,0.00677577355221616
268,1016,0.46765983424831,0.277172204407508,0.956633842495391,-0.00436720690870755,-0.000328474462117035,0.00214256905723093,-0.0349092433737576,0.0204428842663109,0.0080373412975447
269,1017,0.467693538041618,0.277223439878774,0.956635767779453,-0.00345071434006896,0.000360672885867775,0.00230743459647728,0.0368944943472825,0.0236890017945294,0.0256487624423736
270,1018,0.467740570031067,0.277284780381096,0.95662951747143,-0.00178718001203386,0.00188286421441623,0.00187298022877792,0.00779377607456909,0.0147030405586375,0.0141480813188397
271,1019,0.467775242651917,0.277348812203319,0.956619125108959,-0.00140791646169293,0.00269464219193271,0.00177501752156088,0.0326615683380001,-0.0546035810533561,0.00566977944169136
272,1020,0.467808450960655,0.277394595686239,0.956600065434864,-0.000204086881845255,0.0022923086542123,0.00116547539243981,0.0412976002180818,0.0137047323930719,-0.0039693919690014
273,1021,0.46781888309891,0.277434817918655,0.956577924802941,-0.00076027908173067,0.00234410346163464,0.00110878192926155,0.0262383083514553,-0.0129273696381611,0.00278884541963339
274,1022,0.467805286859741,0.277468310372682,0.956550883673444,-0.00115230724151175,0.00222570635200924,0.000514356362155539,0.0433725801325802,0.0086062947666818,-0.0230121429112223
275,1023,0.467775647068362,0.277504666470979,0.956518235284758,-0.00154551880393819,0.0023564938105897,-0.000251293551234985,0.0209365558848016,0.011754991645105,-0.0274108594141651
276,1024,0.467732335007375,0.277547527895135,0.956483416179249,-0.00187253996469622,0.00232604865465494,-0.000861746980681531,0.0366300851444269,-0.0156696401014111,-0.016635880601444
277,1025,0.467672866293845,0.277595073364271,0.95645188205024,-0.0025896012384069,0.00230434084260161,-0.00115473602297406,0.0668827339490509,-0.0055006628598105,-0.017176766835808
278,1026,0.467617430524046,0.277655426695281,0.956423169570285,-0.00263715841228558,0.00279693629786222,-0.00133629259783366,0.0704054068195226,0.0194080844822543,0.0104123565557129
279,1027,0.467560889894742,0.277726600471489,0.956399287042362,-0.00309759033103396,0.00281018371757972,-0.00158874149951306,0.0566167555501244,-0.0379673404763427,-0.0114218600767623
280,1028,0.467510139161427,0.277801759076492,0.956376319208979,-0.00385976253206705,0.00308273936333337,-0.00155062812415291,0.00907851440614886,0.0698408992601008,0.00917338047024897
281,1029,0.46746823916122,0.277900696791939,0.956352077521221,-0.00377408532969969,0.00428685597125366,-0.00143315225573199,0.0240190808197462,-0.0278000476351788,0.0244716860604252
282,1030,0.467436998738642,0.278006814776322,0.956325933000456,-0.00345374654095194,0.00566633985988772,-0.00148555569372435,0.00598606755123668,0.00686718261221616,0.0233166629580343
283,1031,0.467405506433736,0.278108549189517,0.956302129038485,-0.00418776631601487,0.00715504134957429,-0.00144130597380617,-0.0264631656593143,0.0393848121801936,0.00164292495846909
284,1032,0.467367936139491,0.278197855796612,0.956278343446845,-0.00451162108527012,0.00756524157655712,-0.00172490426396644,-0.025582437679566,0.016117372929453,-0.0194307216494577
285,1033,0.467335741876989,0.278271175963609,0.956251722345489,-0.00449110161753154,0.00763741181601105,-0.00191975001102055,-0.0311177834283533,0.0392244827136963,-0.00837722127043698
286,1034,0.467287201897113,0.278324080522067,0.956227106556522,-0.00452812232411008,0.00737742208380812,-0.00228482723812161,-0.0437324388448491,0.0249039986153873,-0.00568994232457425
287,1035,0.46722803023762,0.278348927710318,0.956206754275908,-0.00493405114572951,0.00571800648056237,-0.00201578484692003,0.0193166851745514,-0.000261296370377708,0.0165824635696345
288,1036,0.467161435207699,0.278366461387209,0.956191483557175,-0.00516241017023596,0.00494716600887294,-0.00174479551905965,0.0438573405371173,-0.0478589538643597,0.0216261310779356
289,1037,0.467100983307348,0.278365517234051,0.956183164004372,-0.00545002305318974,0.00311287451157328,-0.00117872689863852,0.0545892168620008,0.00246927023224881,0.0383138838352502
290,1038,0.467049094459388,0.278362291951227,0.956176766453358,-0.00522850174500057,0.00169116107494009,-0.00128525144154351,-0.00314371573929754,-0.0428327448794242,0.00853274287186319
291,1039,0.467002820903778,0.278363115758745,0.956168569859489,-0.00545238271213536,0.000702590069710559,-0.00138458099413934,0.0143671720605472,-0.0178838030390466,-0.00976605772299089
292,1040,0.466969448028356,0.278372735353282,0.956158496732704,-0.00567060510375952,0.000265503653145675,-0.00079318885345465,0.0211465628931487,-0.0195393167994695,0.0437853549688277
293,1041,0.466960071266182,0.27837870502605,0.956146214069958,-0.00550136640826535,-0.000362022783624331,-0.000597730179885068,0.00573410515387276,0.0220390428667216,0.0195583192074642
294,1042,0.466961287671567,0.278398392937948,0.956128518986669,-0.00559420225139049,-0.000473872532311414,-0.000513378064164633,-0.0499599146446911,-0.00344307493452101,0.0131002698983792
295,1043,0.46697940191352,0.278434252129138,0.956104173168559,-0.00433822066082654,0.000420376926613613,-0.000749606955973317,-0.0220666177887124,-0.00880974629469196,0.0177427609494449
296,1044,0.467013171675913,0.278478492688197,0.956077424078641,-0.00316686792494931,0.000841732217119765,-0.000571603217814556,-0.0716281704054683,0.0705504631733742,0.0588981769834136
297,1045,0.467044103416469,0.278536948524299,0.956055087948372,-0.00301814555528765,0.00194863081359591,1.82186861625961e-05,-0.0367246447413467,0.0039549175432132,0.065733457576237
298,1046,0.467088666812425,0.278605549114613,0.956030088662774,-0.00193556286219586,0.00219740853153527,0.00017369097387239,-0.0248388489548324,0.0289618794269239,0.0485017739304276
299,1047,0.467159637648029,0.278694949246444,0.955994602676411,9.98375954772635e-05,0.00329920451163477,-9.59391106644346e-05,-0.0100308131389348,-0.0104926208327267,0.0418904818474384
300,1048,0.467249629863147,0.278799729392238,0.95595036490762,0.00184199160470575,0.00467169118818859,-0.000403196812920882,-0.00676569154575513,0.0108064905379613,0.0295126460712408
301,1049,0.467344572036678,0.278904069479528,0.95590120255897,0.00278026135522031,0.00554741998327822,-0.000590006635545443,-0.0398730706764001,0.0371365774784726,0.026853277612281
302,1050,0.46741198261534,0.279012089472794,0.955856217033785,0.0023790375712524,0.00682245305261715,2.0089996846485e-05,0.0109211106434618,0.0352227570350544,0.0505668933167201
303,1051,0.467472392714263,0.279112460361979,0.955807786111255,0.00304054738125493,0.00716567836814756,-0.000752561571764847,-0.0629751587937677,-0.0185556987134541,0.00653515093690479
304,1052,0.46750149718381,0.279191471716238,0.955764131493204,0.00207288462065856,0.0067567446354616,-0.00042998321453265,0.0222522864696349,0.0440306678131774,0.028023734808678
305,1053,0.467534604978055,0.279262044828327,0.955723022722151,0.00286961126989664,0.00665768903825877,-0.00159805071096867,-0.0110104449630957,-0.0217761027189111,-0.0362091312795456
306,1054,0.467554414132391,0.279304024399218,0.955689924946458,0.00256369596636698,0.0058204824079256,-0.00167435994037459,0.0405114673208064,-0.00358551534532676,0.00517326061172265
307,1055,0.467566807643861,0.279333202238872,0.955665779110269,0.00146154052193205,0.00436738958343551,-0.00155494067109356,0.0484207399895578,-0.032674846461339,-0.00742383622355376
308,1056,0.467586578554349,0.279348352239082,0.955645620300065,0.00155431693619034,0.00257890336687868,-0.00190323508734944,0.0333859821498927,-0.0540310893963176,-0.0208745213865789
309,1057,0.467622457796157,0.279362312713468,0.955625649167963,0.00249095279212236,0.00180594598469553,-0.00286970616025802,0.0193598174130532,-0.039066931075126,-0.056634477202962
310,1058,0.46765628796844,0.279386693570837,0.955612859360602,0.00164546685383141,0.00153714319065253,-0.00243315707204603,-0.00576119514589512,-0.0277688305890069,0.00397547963328257
311,1059,0.467702066058734,0.279406535100377,0.955602699328803,0.00214623142140672,0.000380616409039463,-0.00295185660770559,-0.0240033072171311,-0.0247983256910998,-0.0349168485116607
312,1060,0.46775449220091,0.279438554297443,0.95559361877846,0.00253976796633388,0.00139432740399564,-0.00309420571345952,-0.026736615680108,-0.0212580278995786,-0.0184017147704658
313,1061,0.467786317851503,0.279467752789875,0.955593524800561,0.000851010343816923,0.00125964151857755,-0.00209360297010487,-0.0653190811666068,0.0135794910757695,0.0305698258605801
314,1062,0.467793457245704,0.279497882554292,0.955601085042541,-0.000379521762709752,0.0016808299691704,-0.00132631817535101,-0.0363045074441783,0.0379569529339441,0.0235292655652632
315,1063,0.467782400650186,0.279532620519268,0.955609184722701,-0.00103329691769971,0.00241132638436944,-0.00114558167750625,-0.0791191364304577,0.0191462895498964,0.0183382687855247
316,1064,0.467741159559302,0.279566976267036,0.955621793407185,-0.00257743249370372,0.00309154388892527,-0.000229898738647455,-0.0391537620721971,0.0232428867064408,0.0517984541747993
317,1065,0.467677410937219,0.279596685177339,0.955636672211042,-0.00390214848789925,0.00286110537296227,-0.000113898647558266,-0.0186057004066879,0.0356602687773329,-0.00657294979781567
318,1066,0.467603501294635,0.27962382605382,0.955648642557577,-0.00511955278199617,0.00275794813945962,-0.000311713216763505,-0.0690244830075115,0.00961809123832898,-0.0123406782720106
319,1067,0.467520845510161,0.279638849249384,0.95565898183171,-0.00656333495066116,0.00157312582156744,-0.000326249006240605,-0.0157780038420679,-0.003126058659905,-0.0244562461426139
320,1068,0.467437138904977,0.279646068167002,0.95566794165642,-0.0074760922150965,0.000286009416855618,-0.000282391780271098,-0.0070580402971375,-0.0233738950745675,-0.0128406529912491
321,1069,0.467361471400066,0.279652683678357,0.955675489724657,-0.00808046203040961,0.000162901608468686,-0.000426188533150948,-0.0171959990543385,-0.00710277133447095,-0.0169932849058048
322,1070,0.467297000506033,0.2796502145211,0.955680329891365,-0.00858219406952242,-0.00111323504104427,-0.000608686745743323,-0.0339199605245146,-0.0468494171637744,-0.0197523487406302
323,1071,0.467238695082248,0.279647022902496,0.955684514711554,-0.00919811005293526,-0.00133144992867903,-0.000364387029479656,-0.0403225144831886,0.00688075580554154,0.00457222840399763
324,1072,0.467186349717823,0.27963652016773,0.955688858516715,-0.00964376725666673,-0.00235359005868064,-7.87739872107376e-05,-0.0676430120546957,0.00774720184804532,0.0233880945127309
325,1073,0.467143297702996,0.279629580278714,0.955692350424942,-0.00957511804985053,-0.00231623868487815,-8.14619513212603e-05,-0.0537815638820261,0.00883655956120405,0.00921835595900663
326,1074,0.46713172557814,0.279635149478502,0.955691622019979,-0.00841253171654767,-0.00220761511597192,-0.000173655243718805,-0.062169608100168,-0.0274905818256753,0.0165041015334488
327,1075,0.467125216724897,0.279642700735604,0.955692391926944,-0.00757647960340223,-0.00258331916723893,-0.000302573913726168,-0.0254330542691355,-0.00931915878832409,-0.00840017170502806
328,1076,0.467119283294834,0.279635420499272,0.955762839458872,-0.00732744833934789,-0.00306502816175937,0.000206869795953341,-0.0346839703907358,-0.0230920052168227,0.009239414771431
329,1077,0.467114282300586,0.279664192480851,0.955849774592229,-0.00683061079021817,-0.00289661203266007,0.000326656987228673,-0.0258884797309102,-0.0399920838594059,-0.0199138737233938
330,1078,0.467115355781041,0.279676229080805,0.955911828730625,-0.00512965874429219,-0.00261563829363689,-0.000137256439425024,-0.0379549164909531,-0.0136987573963515,-0.0246317034015124
331,1079,0.467112948571533,0.279697255785148,0.955961406049748,-0.00473117170644233,-0.00221092590054634,7.64625472650664e-05,-0.0306683428365427,-0.00700914937866829,0.00368498359495213
332,1080,0.467100723155426,0.27971140754833,0.956003322955385,-0.00484210108740065,-0.00198447192532608,2.22243434949401e-05,-0.0192742710391831,0.00619454389213793,-0.0223138883390637
333,1081,0.467086268406506,0.279730885011219,0.95603742351367,-0.00434687159953819,-0.00152877799515882,9.86339938840415e-05,-0.0118569955857254,-0.0166012727947053,0.0108555257627349
334,1082,0.467072883542157,0.279745162254338,0.956073178163163,-0.00446535466333446,-0.00140622602025047,0.000751038492918682,0.0523999062222271,-0.0078868060065049,0.0254666981041767
335,1083,0.467066330445125,0.279759979776752,0.956112169316502,-0.00454690311513326,-0.000902537737471614,0.00126656230955939,0.00251124846566749,0.0324688416761147,0.0249495472350434
336,1084,0.467083137212295,0.279789842009517,0.956150433177565,-0.00325232189899593,0.000277311296510145,0.00119091872968197,-0.0187669966407385,-0.0444852338852252,0.0158316923287886
337,1085,0.467111441760137,0.279821852515184,0.956192520763678,-0.00269851149161223,0.000412967287762905,0.00143240734540823,-0.0268980447280291,-0.0122374626800355,0.0123871122734415
338,1086,0.467143420796151,0.279861242539761,0.956239704018987,-0.00288531566691323,0.000625951604951961,0.00181484841154849,-0.0308913851749022,-0.0138743231773615,0.00749207488089269
339,1087,0.467177528043933,0.279908883841302,0.95629072587463,-0.0027178768863572,0.000591655840910063,0.00225883681348594,-0.0341585785547536,-0.0147336213332164,0.0165844627003325
340,1088,0.467212997498256,0.279975988744048,0.956340685524746,-0.00160196546859012,0.00132921678473367,0.0020986482954182,-0.0256404229650084,-0.0148421327516881,-0.0020330634024142
341,1089,0.467244218051874,0.280064809441378,0.956386390735605,-0.000922495741096859,0.00266543857807491,0.00219110700446467,-0.0431291973449061,-0.0202478206031779,0.0224991420164857
342,1090,0.467270140553276,0.280167098986204,0.956426953737957,-0.00112386474461563,0.00382055757533558,0.00237127281115645,-0.0356259452859292,-0.0354556361543114,0.0264423133486457
343,1091,0.467290086980186,0.280271456848329,0.956458092587055,-0.00144984796788239,0.00447295886785801,0.00287497106971937,-0.0294471549235122,0.0171537125430407,0.0508083262258985
344,1092,0.467309729831115,0.280397624243192,0.956473919557864,-0.00156389072106711,0.00622695524449208,0.00259330923255364,-0.0534889815398781,-0.00843177914183044,0.0179772545356689
345,1093,0.467333149445765,0.280531926085437,0.95647509454748,-0.00177935145515543,0.00677094049180261,0.00289307982491798,-0.0505587313371708,0.0150009186867963,0.0664608153769311
346,1094,0.467383506320693,0.28068244853811,0.956468914810132,-0.00169453839255887,0.00792528264040251,0.00331188500307826,-0.0444524570418627,0.00994732070809244,0.0789886267145473
347,1095,0.46744601045088,0.28084395365789,0.956461164409104,-0.00105135047366803,0.00947644857079378,0.00332400232848943,-0.0548427102657289,0.0286034426876276,0.0608931106549683
348,1096,0.467525099327244,0.281023333035762,0.956450150564215,-4.55909757543934e-05,0.0107138817041437,0.00321342009010843,-0.0507399970886303,0.0385382933378072,0.0542480973290631
349,1097,0.467632456792783,0.281225668531446,0.956429819129705,0.00188816853680862,0.0129686847258095,0.00229216566339025,-0.0746958698485831,0.0421661050342234,0.0173082412913307
350,1098,0.467755680131827,0.281440792730248,0.956403629439508,0.00330214207356216,0.0143682442599519,0.00233518705716727,-0.0290928141737908,0.0235827922232899,0.0643886250757805
351,1099,0.467900979413817,0.281669048228585,0.956366959386008,0.00515393659830501,0.0163787566317251,0.00149078882361609,-0.0716408620989625,0.0349622515033497,0.0248554671430053
352,1100,0.468038896977627,0.281904947436694,0.956325548975856,0.00553569025080889,0.0187530168090764,0.00148137205452187,-0.0169634653385558,0.0880801445035533,0.0345544004141484
353,1101,0.468167577063387,0.28215734272474,0.9562780097985,0.00626360522791847,0.0204333521651896,0.00100622031583259,-0.0402049332595839,0.0596293975637433,0.0249420320782974
354,1102,0.468268348915631,0.282427548767859,0.956228474321359,0.00562017225060095,0.022547641924653,0.000747132903195011,-0.0375089464700215,0.0284907668205545,0.0145204749024194
355,1103,0.468343542460722,0.282718364492243,0.95617654800304,0.00520470040132129,0.0243599835863807,0.000641227214921613,0.00276379577584669,0.0283186020367793,0.0309867683668715
356,1104,0.468406129651336,0.283027828341801,0.956121008837019,0.00518133597820708,0.0257546641356381,6.83720396630453e-05,-0.00147763420393825,0.0310676922973929,0.00797021631258869
357,1105,0.468460208699417,0.283352043072159,0.956061037424423,0.00531877232737402,0.0267819699716851,-0.000633810569560588,0.0252373773583037,0.00210685676127961,-0.0102510319445571
358,1106,0.468504561747506,0.283682170135168,0.956000167382132,0.00479458762583655,0.0269928184198441,-0.00106174385122349,0.0566662613217159,-0.0337076279162957,-0.017425278447617
359,1107,0.468558419405559,0.284023661710527,0.955941322839056,0.00524120232342333,0.0279701807559361,-0.00236953444184157,0.0106020001567755,-0.0621866931473418,-0.057882621683075
360,1108,0.468610438315356,0.284345028685494,0.955893207177483,0.00431715952283071,0.0271838826559798,-0.00260102458068774,0.00459086623623804,0.015505035380049,-0.0231513243174268
361,1109,0.468658206583455,0.284656910517365,0.955856589123976,0.00356244978689996,0.0271534586829132,-0.00271363922134438,0.0382529132399933,-0.0482317537811086,-0.0286973616414291
362,1110,0.468704973193009,0.284955028245064,0.955827759658812,0.00302394825663033,0.0272629988648054,-0.0032861271939928,-0.0195611157798102,0.0120679751445921,-0.0584411352479675
363,1111,0.468742235643562,0.285241552622392,0.955806634428661,0.00262345813497916,0.0273655050678457,-0.00346563004215024,0.0046407363820011,0.0125112740497785,-0.0436112510646418
364,1112,0.468769186214808,0.285518000537847,0.955796715478523,0.00229839279166648,0.0275462048712534,-0.00316995109709292,0.0440205400147782,0.0386616584824236,-0.0191621704486032
365,1113,0.468791862236494,0.285778952373068,0.955796716613141,0.00193791594589379,0.0269832952826616,-0.00300214235847344,0.00427862548675745,0.044313973555821,-0.0225231706540534
366,1114,0.468829277319597,0.286018121565932,0.955807254844233,0.00199773845720989,0.0264650816703714,-0.00239914658821214,0.0317995773356101,0.0470610752104743,0.00450646915871271
367,1115,0.46887114787491,0.28622836875043,0.955828162949976,0.00199061099691675,0.0253074857037598,-0.00192970809942576,0.0151135283629086,0.0193885828561161,-0.00883732697894801
368,1116,0.468928893947471,0.286414757338193,0.955848805019758,0.00281566840999935,0.0242341085168681,-0.00203313667629155,-0.0471050063418068,0.0482050770308942,-0.0126271560260612
369,1117,0.468985492889341,0.286576687955021,0.955871908981707,0.00295669719859747,0.0226998572024664,-0.00152293153906617,-0.0042054539162209,0.0209657725639219,0.00127632725231806
370,1118,0.469047308225201,0.286702588826336,0.95589461082761,0.00345986073605348,0.0203792849886467,-0.00123574739717942,-0.0196941328722942,0.0262449891083066,0.00406323590734256
371,1119,0.469117025647408,0.286795908955795,0.955916079596744,0.00398001943432604,0.0181458360397163,-0.00119578844567877,-0.000998149174983952,0.0264938060323175,-0.0194402743654531
372,1120,0.469194618170391,0.2868567892243,0.955936008229025,0.00459275945452843,0.0156242575136303,-0.00100095206975547,0.0101167353527415,0.0197229280170796,-0.0140352837137479
373,1121,0.46927687567601,0.286878124542641,0.955955277973231,0.00507776284751448,0.0127486698359576,-0.00107955356727712,-0.00593346799024597,0.0437206045062564,-0.0348314693947038
374,1122,0.469360285899197,0.286864418380165,0.955974295259479,0.00537489709351223,0.0093867654278253,-0.0010148536977617,-0.0145156979099327,0.00241330036407011,-0.0254724556737614
375,1123,0.469435052284333,0.286826465630803,0.955994168946114,0.0056297402636548,0.00723116503292303,-0.000860885553945261,0.0407193102632634,0.0538840254072404,-0.026387170873514
376,1124,0.469510777522569,0.286770955804408,0.956013491264699,0.006082547835292,0.0044894942570648,-0.000790472787750003,0.0461008213590359,0.00354595621250349,-0.0171516437565957
377,1125,0.469577576179199,0.286696531815979,0.956033556709532,0.00554199937261608,0.0020174002107363,-0.000388653648586084,0.00359659810312537,-0.0228502133547559,0.00577629672422863
378,1126,0.469633284806983,0.286600305482672,0.956053432351003,0.00504696061547829,-0.000656189900113873,-0.000136470550549939,0.0103612043216162,-0.00354270760777233,0.00770877732788264
379,1127,0.469681449028899,0.286494166593498,0.95606937431381,0.00472063835072296,-0.0030583669824479,-0.000302775038624243,-0.0101626051296721,-0.0218814200689869,-0.00869438014942901
380,1128,0.469711224113273,0.286383832497176,0.956082169124474,0.00359757663263384,-0.0051356808419275,-0.00025407944738258,0.00181406634508922,-0.000149837485017703,-0.0135137116514388
381,1129,0.469722967747509,0.286286635560111,0.956093878514203,0.00251973045939948,-0.00609879014615642,9.10998707797062e-05,0.0221842699280137,-0.021910080451247,0.0122569674622556
382,1130,0.469727225944291,0.286205298005417,0.956102354030149,0.00208039478017878,-0.00683706363231597,-0.000226548618717771,-0.0166580220583062,-0.00337841582557396,-0.0105877667064861
383,1131,0.46971955881658,0.286136231388929,0.956114590749234,0.000420441176232562,-0.00756181689885799,0.000443993554414794,-0.0265311669634673,-0.0289878821008428,0.0355204110732073
384,1132,0.469713825239199,0.286088819085313,0.956127844289377,-0.000293708129674575,-0.0066034000144823,0.000255116437718366,-0.0438316174087126,0.0329330598536445,-0.00614929678253283
385,1133,0.46970935639614,0.286064318701014,0.956140858786286,-0.000563555070266512,-0.00577909420826282,0.000222062617624547,-0.053723530617204,-0.0141536055146507,0.00708053260826325
386,1134,0.469716862022764,0.286045049766573,0.956153364197013,-0.000253132395530768,-0.0055006088522781,0.000300998561530934,-0.0293005795983444,0.021543219472292,0.020608018891726
387,1135,0.469731396204864,0.28602837393743,0.956167876305351,-0.000499768017176211,-0.00497965131407611,0.000533536455809804,-0.0370841433482921,-0.0180698371830072,0.0230642444441204
388,1136,0.469746840072123,0.28601172082046,0.956179896736942,-0.000498747955307119,-0.0049395583276442,0.00045169030616534,-0.0502006179941516,-0.0032595314348331,0.00879779195997197
389,1137,0.469758032698312,0.286005803354331,0.956190985564859,-0.000376342267444514,-0.00446181878010842,0.0007392080618218,0.0114948143951745,0.0053962485910317,0.0198194759713058
390,1138,0.46977680285188,0.286013648921381,0.956196620334084,0.000345009463076398,-0.00365072977510495,0.000383740312056386,-0.0264912120934342,0.00318826198338759,0.000738067852819558
391,1139,0.469797658598847,0.28603170251762,0.956197946887523,0.000581352994642129,-0.00273473651363589,0.000265429048786886,-0.0275642470372335,-0.00822072659346926,0.00989917769415164
392,1140,0.469815769469482,0.286047528180378,0.956197128354483,-0.000364096677632325,-0.00270436904764191,0.000414116915584933,-0.0637646545144535,0.0196056634276138,0.0153439603203443
393,1141,0.469830485491348,0.286071528911082,0.956192654695375,-0.00106802690463091,-0.00259531030846173,0.000516222677181405,-0.0356931712833562,0.0110301956022122,0.0123868388005771
394,1142,0.46984601865618,0.286107650498709,0.956182997342221,-0.00165251297811673,-0.00228867255193445,0.000333851786777028,-0.0719862391905873,-0.028403065233105,0.00664101845243082
395,1143,0.469870790639027,0.286149170414779,0.956169209781705,-0.00165163979256341,-0.00197542677127927,0.000313392657892725,-0.0610257144747814,0.00201986957849161,0.0332084217527812
396,1144,0.469918578172342,0.286207476407443,0.956152484931061,-0.000639960848857124,-0.000797260611206929,-4.99413430149399e-05,-0.0410295305826306,-0.00441208891577499,0.0192437480183644
397,1145,0.469992029108646,0.286276910832213,0.956132814023371,0.000552692561576499,5.84160925540455e-05,-0.000161387616384575,-0.0408409987059227,-0.00167684703414351,0.0370774569942089
398,1146,0.470080986631052,0.286362468753966,0.956117330999028,0.000709318341245353,0.00141926244267711,0.00069290346306973,-0.0133307542660387,-0.00165431459324846,0.0832242232596956
399,1147,0.470190581240519,0.286471127763949,0.956099087732267,0.00228063462076439,0.00332227972658161,0.00039001433448148,-0.0336679115345534,-0.00981805944373856,0.0322572633135527
400,1148,0.470321279511444,0.286591763628183,0.956076699659707,0.00388193703026767,0.00471843350159573,0.000329157343253872,-0.0104948859332594,0.000963526244678015,0.046830973095269
401,1149,0.470467320381699,0.286731354101781,0.956053564580399,0.00510353081300564,0.00645997303453154,0.000503413699563689,-0.0212403236919036,0.0249193153083707,0.0535512567926122
402,1150,0.470627557215359,0.286895798521592,0.956028120094185,0.00662443374458326,0.00845133989455239,0.000212171400592256,-0.0185046343604885,0.00555636886916012,0.0234798781820322
403,1151,0.470797101304052,0.287075883302861,0.956003686793763,0.00804821935078408,0.00993494399899357,0.000433753502215042,0.0320287513380679,0.0266387896299438,0.0468519416115252
404,1152,0.470984492285585,0.287272476307095,0.955975036139609,0.00994576794944692,0.0112318573213923,-0.000701771621809533,-0.0113209146815097,0.00338101257320889,-0.0397738523388929
405,1153,0.471196487014575,0.287485123500108,0.955940684472641,0.0118076121554261,0.0131951344799172,-0.00150593071983215,-0.0513161246886689,-0.00769625780357228,-0.0199472053994287
406,1154,0.471400863212789,0.287713126164532,0.955912930252495,0.0123085860910106,0.0149472060299266,-0.00118886034695106,0.0363242177169394,-0.0183527853660919,0.0138833832515608
407,1155,0.471610520194733,0.287946221458114,0.955884980881638,0.0132700576026044,0.015911440763526,-0.0018911390087465,0.004063877119956,-0.0186394457392235,-0.037408132551059
408,1156,0.471833452230269,0.288185140871747,0.955853069934059,0.0149951747385942,0.0169172717830222,-0.00274052167986016,0.00795723747123283,-0.00202172391437885,-0.0374500881845456
409,1157,0.472066720584847,0.288434498994867,0.955822062665874,0.0159182258737491,0.0180571142956944,-0.00329419917296412,-0.0134778841408507,-0.0361677274941827,-0.034355024481852
410,1158,0.472307967180707,0.288688144575142,0.955793596467709,0.0171286039627676,0.0185221831059592,-0.00356690790562757,0.00799561093504657,-0.0482487816464117,-0.0162499078368975
411,1159,0.472553572922897,0.288939474926586,0.955770348784514,0.0177853979471804,0.0188068698659426,-0.00381935669605761,0.0067350416204697,-0.0169276174056458,-0.033074026214856
412,1160,0.472797533743114,0.289195569852933,0.955753076171383,0.0184067365894165,0.0192347529552174,-0.00385393104495995,0.0180481539252149,-0.0494525225176017,-0.0252549936908026
413,1161,0.473045660739658,0.289459516632482,0.955740239773245,0.019388160580242,0.0200722154399998,-0.00385713093925352,0.0275488457845816,-0.0591577680901376,-0.0149307107525985
414,1162,0.473299996694694,0.289725622254822,0.95573161621752,0.0203040818891326,0.0205984226879209,-0.00399888874537709,0.0409809937652247,-0.0297731206501272,-0.0332413584119745
415,1163,0.473550918001215,0.28998068036855,0.955727956091682,0.0204943530610447,0.0210126487298984,-0.00380757013226815,0.0254290579903408,-0.0394261227295644,-0.0230785187399209
416,1164,0.473812291352111,0.290226847814941,0.955719390749464,0.0218817388335934,0.0213561482669241,-0.00470807391107912,-0.00772006307132437,-0.0407459396478996,-0.0629914493613583
417,1165,0.474059141845691,0.290460976719239,0.955713560567495,0.0215864721127352,0.0219012203801443,-0.00428761079554736,0.0300225440055348,0.011105182100138,-0.0138779500424777
418,1166,0.474301475748707,0.290670446829214,0.955708590974015,0.0220098135526481,0.0212020356493454,-0.00443210071408008,0.0274526288693775,-0.0261548234769221,-0.031085927845355
419,1167,0.474540822895845,0.290852021913097,0.955703389997814,0.0225815649077655,0.0200042567520681,-0.00464557917459934,0.0408422892694774,-0.0169637434276045,-0.0423643396578623
420,1168,0.474783161157303,0.291006755862772,0.955699519332741,0.0226005504223231,0.018612534437759,-0.00441985769691028,0.0183239492578064,-0.0172253348530957,-0.0161353526786324
421,1169,0.475029199063345,0.291137618161801,0.955697127177065,0.0222939729101565,0.0167545568769235,-0.00435300470254008,-0.0042771250140208,-0.0421770685615656,-0.033470855621902
422,1170,0.475285243368371,0.291238189983185,0.95569020762215,0.0235865300251661,0.0152402072111751,-0.00560371864086836,-0.00666471783641799,-0.0145053216677692,-0.107256857368039
423,1171,0.475525774265415,0.29128689065277,0.955686315465249,0.0232589804932551,0.0117625822135138,-0.00567122538861967,-0.0158347217047964,-0.0183015198575586,-0.0674856691216328
424,1172,0.475735117691449,0.291284590961284,0.95569434571746,0.0221231936178708,0.0088750881173742,-0.00525116984650614,0.0188202631625497,-0.0586880069336612,-0.0483189657846092
425,1173,0.475921403318044,0.291220096732341,0.955712699554643,0.0215585619141665,0.00516174805702813,-0.00537614108887261,0.00754496481157179,-0.0314929187512591,-0.0706193182055583
426,1174,0.476095480061678,0.291083349093105,0.955742314227405,0.0211603666075498,0.000565790352097742,-0.00533144809372449,0.000478021842997616,-0.0345441752409127,-0.0673974972845491
427,1175,0.47624574834627,0.290872117007759,0.955788471882993,0.020080244701813,-0.00462435941759762,-0.00449186994095001,0.0223252296991459,-0.0403339177633643,-0.0313649011230375
428,1176,0.476376704104735,0.290597801280949,0.955848564844195,0.0188629175894353,-0.010025341568591,-0.00399632044793483,0.0211551244252396,-0.0453347237853977,-0.0647420146520298
429,1177,0.47648842232289,0.290272661443208,0.955919867971535,0.0176317214425312,-0.015298735223746,-0.00308567512058355,0.0117770575373462,-0.0703222134152005,-0.0350594579245797
430,1178,0.476589742617428,0.289899319840409,0.95600177606509,0.0169316302428449,-0.0211933540435588,-0.00223132329731263,0.0337848844575859,-0.0743665791099095,-0.0302008924667026
431,1179,0.476678918233602,0.289489220857767,0.956091744504769,0.0157126747302093,-0.026501881990059,-0.00138115683488481,0.0285439504905877,-0.131571065868272,-0.0471215424176925
432,1180,0.476755680618182,0.289024828136916,0.956183679721406,0.0150018820207319,-0.0328222359914219,-0.000773443373585446,-0.0194463164653519,-0.105762787700282,-0.0406384771318677
433,1181,0.476803554916024,0.288521551081129,0.956284783389819,0.0128755306294592,-0.0375671507243332,0.00111326485032256,0.0869158940390738,-0.103273356061867,-0.00352740966876001
434,1182,0.476834804176971,0.287975718839181,0.956385207701129,0.0111239991500577,-0.042248540685059,0.00200673579754808,-0.00382800526327218,-0.0610494474759042,-0.0364927370113084
435,1183,0.476834525532674,0.287395270015166,0.956480522206776,0.00876923942508822,-0.0464195234227923,0.00324492527830912,-0.0127583020418326,-0.061924692126042,-0.010258548483544
436,1184,0.476812763603097,0.286780466980669,0.956564064974095,0.00707885258092597,-0.0499061642850133,0.00360269213034798,-0.00243887907250566,-0.0503968062576036,-0.0460476037674807
437,1185,0.476786770889935,0.286135620182411,0.956628633685093,0.00571181412008728,-0.0531972572434279,0.00407026270715444,-0.0360116260208342,-0.0407604119304118,0.0038672678934959
438,1186,0.476749640531128,0.285467967498703,0.956672992492678,0.00331358545594042,-0.0572033866974152,0.0044047949237856,-0.0589604284054865,-0.0793703633284951,-0.00587332848078665
439,1187,0.476690075824688,0.284772002418105,0.956698584747733,0.000893471564167505,-0.060066680842154,0.00476594665142238,-0.0374249591731023,-0.0453286702986158,0.0120405782899557
440,1188,0.476621838876342,0.284026925176817,0.956710398804552,-0.00169224742540327,-0.0637877357537056,0.00519967540297605,-0.0546449853176912,-0.0390600781414237,0.0337929880993643
441,1189,0.476529212847975,0.283246485091447,0.956716544736006,-0.00479749411586651,-0.0674791865502203,0.00637535550371879,-0.0103041613607384,-0.0622214289530551,0.0703326179692606
442,1190,0.476449413546363,0.282448001126749,0.956708043638152,-0.00588883382303169,-0.0701985842921975,0.00613680850433051,-0.025031924683445,-0.0564181356085502,0.0269953266616053
443,1191,0.476423298124991,0.281649578643461,0.956679719975304,-0.00653179049117701,-0.0722506262758367,0.00615610404785574,-0.0472659841316275,-0.0485727635609769,0.059045682720356
444,1192,0.476444634017941,0.280846634541782,0.956660046797483,-0.0058736282259603,-0.0743156230314379,0.0060336629696239,-0.0631288738135063,-0.0423638646555459,0.0573736394232775
445,1193,0.476453641441149,0.280029107834856,0.956636172021218,-0.00585324884277966,-0.0762597775127261,0.00642317500953782,-0.0547559277947162,-0.0195631040573139,0.0531990282978657
446,1194,0.476463815469721,0.279200409637777,0.956641576903842,-0.00480366441410546,-0.0786087820130959,0.00597169519783763,-0.0805129394963934,-0.0159433668533557,0.0372903071684326
447,1195,0.476540791603195,0.278352999677696,0.956664198665337,-0.00328286854954469,-0.0803832924510704,0.00555209803204434,-0.051306020112093,-0.012105923291739,0.00740247812913843
448,1196,0.47658404049709,0.277504222623766,0.956690479673961,-0.00245102785514543,-0.0828242879130078,0.00526976543660789,-0.053042336983968,0.0154194405904438,0.0251570415362704
449,1197,0.47665836651688,0.276672484877339,0.956720884790873,-0.00185044588500464,-0.0838224236311581,0.00542715900951112,-0.0444313191929855,-0.029691924573277,0.0437599348337707
450,1198,0.476739057575586,0.275852435258578,0.956749712771147,-0.000291651615751908,-0.0848511224202025,0.00477975148551211,-0.0557639669677764,-0.0463638058790898,0.0131487086642948
451,1199,0.476834406987606,0.275037245310244,0.956777614235158,0.000695982226783799,-0.0857925749476227,0.00433325853306079,-0.054206571426619,-0.0795294801739304,0.00348951266855545
452,1200,0.476934148690857,0.274224829513901,0.956801687201621,0.00173878889218654,-0.0865108883796907,0.00338353097689161,-0.0901638302006465,-0.075261783173195,-0.0231061671737652
453,1201,0.47702937823784,0.273410077679426,0.956817085882108,0.00275346284269015,-0.0871835364841776,0.00190146974477173,-0.0933520872756954,-0.0486319306372746,-0.0700902427301048
454,1202,0.477107580277396,0.272604894507995,0.956826864601151,0.0028559138375325,-0.0868451363536246,0.00134932137343997,-0.0165363850027398,-0.0519821736608787,-0.039770890671678
455,1203,0.477189243098831,0.271804464281979,0.956823356825593,0.00363926438829627,-0.0875038431094279,-4.43355551400673e-05,-0.0680123145063645,-0.0818429943378429,-0.0587610883563713
456,1204,0.477269206524196,0.271017173464519,0.956811234331072,0.00373211984961415,-0.0872168185860596,-0.000615495686129575,-0.0516214564144914,-0.0237384647805905,-0.0117548686343082
457,1205,0.477360537162072,0.270253528459303,0.956789229117057,0.00517171543092521,-0.0869814875158852,-0.00187777691396021,-0.0333609737414952,-0.10908733953006,-0.0301337765944461
458,1206,0.477480569104785,0.269523914286213,0.956757179193702,0.0072465873695909,-0.085040364634795,-0.00293649995092013,-0.00383299075001317,-0.0645619793290691,-0.00724440527907632
459,1207,0.477619867825435,0.268822703371037,0.956722936666957,0.0075464289328482,-0.0831078245011258,-0.00288200436113083,-0.051723396925073,-0.0282685838871135,0.0441746387732997
460,1208,0.477761140097229,0.268162886732566,0.956691915629259,0.00692368053599725,-0.0801355720194077,-0.00219953285796432,-0.0483567667456135,0.0510290145676497,0.0670261955944266
461,1209,0.477909953491288,0.267561810046442,0.956659512765038,0.00751485697432925,-0.0761783494364829,-0.00206210967352343,-0.0881830975372747,0.0118051224011581,0.0677032562004219
462,1210,0.478044945854936,0.26700815389002,0.95663117691495,0.00704647050755972,-0.0725491194583514,-0.00145595853363114,-0.0427878266890152,-0.0268873078321872,0.0553400278833033
463,1211,0.478178489531533,0.266516578119501,0.956654640770623,0.00825480344321366,-0.0677452089651798,-0.00186769689937834,-0.0490906455355757,-0.0582690225218666,0.00617937115545531
464,1212,0.478366725724213,0.265997347078736,0.956719764390337,0.00873257456834049,-0.0657491290962164,-0.00174781042927001,-0.0699806230377985,0.0380028469374394,-0.0183917186776054
465,1213,0.478543190141688,0.26553451875652,0.956782399759107,0.00830708645995748,-0.0617164355650396,-0.00180612118440008,-0.0750128367506626,0.0157728617972051,-0.0606003235065386
466,1214,0.478718558412515,0.265083230937202,0.956837692890581,0.00776386617353968,-0.0586526687775542,-0.00228394123051419,-0.0904726741753117,0.0296470548777007,-0.105375431861315
467,1215,0.478837132171777,0.264633604647155,0.956895107530953,0.00681197016189808,-0.0565562107579312,-0.00245013597910725,-0.0482740202547483,0.018943985434356,-0.0862264509312565
468,1216,0.478904893583122,0.264180084242252,0.956946399886774,0.00636022262787264,-0.0553695461945168,-0.00341585986988118,-0.0293315774394426,-0.0241901686732871,-0.114513518262723
469,1217,0.478906941130822,0.263719213960638,0.956988059968341,0.0050605447884328,-0.0543011133159331,-0.00418223596241578,0.0111095598306992,-0.0324953596127729,-0.100980350943131
470,1218,0.478853365801955,0.263242954074872,0.957020200585339,0.00255949506185187,-0.0538694374796854,-0.00415579032141611,0.0866503372476288,-0.00114000006188486,-0.0477999480592238
471,1219,0.478747184086998,0.262759279997679,0.95704176901083,-0.00131656069183382,-0.053497005302109,-0.00386402413220199,0.0791930057764488,0.0461336427637093,-0.0349787006459662
472,1220,0.478595755250207,0.262296790545175,0.957043491507019,-0.00513334348911016,-0.0526035123935381,-0.00404562684302065,0.014834397834266,-0.0314293561474062,-0.0325367473955319
473,1221,0.478412496665831,0.261852366051705,0.957021876009672,-0.00851374405072536,-0.0523144137637409,-0.00492683346615418,0.0100430062530977,-0.0804072463528799,-0.0638355664252321
474,1222,0.478209816907488,0.261422606042733,0.956983743665695,-0.0119497534747247,-0.0518247830619407,-0.00541220779376107,0.0113151514329431,-0.082896799077842,-0.0436258433143429
475,1223,0.478009694264038,0.261007116303281,0.956936305581937,-0.014223256177905,-0.0505716037116749,-0.00585978598093612,0.0688193778570522,-0.0639375188868389,-0.0480523313255915
476,1224,0.477836084582752,0.26059595775015,0.956882952867502,-0.0149690988871763,-0.0494535952134688,-0.00677804641924563,0.0429391261270136,-0.0764234878973008,-0.0629437022587665
477,1225,0.477677154199854,0.260178485313817,0.956833854457822,-0.0156520872065119,-0.0487025109286439,-0.00742142421983271,0.0464544011974812,-0.0863646308091933,-0.0831180730060517
478,1226,0.477537642630492,0.259740300190923,0.956795071784822,-0.0156301926137574,-0.0488801916652794,-0.00852747577242592,0.0312898319006952,-0.0811734038470508,-0.132499115258303
479,1227,0.477432253242748,0.259278358253149,0.95677498755303,-0.0144777113268758,-0.0485617068720378,-0.00965041758554696,0.0430652282209144,-0.104297563410151,-0.148207048490926
480,1228,0.47734089796663,0.258783658352815,0.956789804608492,-0.0140326442443443,-0.0495639484182494,-0.00996647549415517,0.00249749455724181,-0.0757334231765079,-0.143936104119563
481,1229,0.477237574626363,0.258260791262362,0.956852940480114,-0.0144890210595895,-0.0508465720798491,-0.00910606701916371,0.0466281814666687,-0.0691113567475368,-0.119565429449176
482,1230,0.477137191438587,0.25770757651558,0.956961339100787,-0.0137759138701907,-0.0528321462650799,-0.0090117400139011,0.0341015848434454,-0.0702125833470935,-0.173225005677896
483,1231,0.477032062496019,0.257126392691782,0.957113489559995,-0.0134747422210495,-0.0550129620521708,-0.00793842052057831,0.0708288481805339,-0.0768948422404337,-0.145268728964361
484,1232,0.476931086970492,0.256528989747075,0.957301691775773,-0.0127731445658142,-0.0571914118732038,-0.00682615511307502,0.0651770281190402,-0.110418935050489,-0.138300500993345
485,1233,0.476838392496287,0.255924795377104,0.957512381615886,-0.0129607899216689,-0.0593549954966803,-0.00484669603202778,0.0179760867513018,-0.0951040709956402,-0.0620858769713219
486,1234,0.476735598912073,0.255346675180678,0.957231814421114,-0.0130562827083608,-0.0607417731463088,-0.00443391598235345,-0.061298564851831,-0.113115426817462,0.015036146899034
487,1235,0.476583254768408,0.254898613849588,0.957332042589398,-0.0145821657998752,-0.059193299964944,-0.00296512552241234,-0.0109844625880466,-0.108955595647305,0.0783665217019528
488,1236,0.476362161067186,0.254618815989871,0.957360568925243,-0.0167108028027622,-0.0550731843472905,-0.000806673324993511,-0.0441400329693106,-0.0937026874010129,0.140852198102855
489,1237,0.476374162667468,0.254035214402293,0.95737644023095,-0.0154402733744392,-0.0557751751196967,0.00183570742038817,-0.0178389341905399,-0.140875293434686,0.210184800631223
490,1238,0.476296733705301,0.253684988757556,0.957399051572509,-0.0149260546081637,-0.0530742692689402,0.00399040101813394,-0.0543888366835624,-0.113247008901755,0.21600129543224
491,1239,0.476324653778465,0.253324211679778,0.95747603215021,-0.0114999115428266,-0.050098400545607,0.00574846417841605,-0.0458381751738004,-0.0939773034524082,0.237562067546349
492,1240,0.476441817050848,0.252896242641509,0.957556693753538,-0.00747806757016906,-0.0484088983026611,0.00682049046000527,-0.0324679930955262,-0.0714610816568955,0.172928993051978
493,1241,0.476563060633568,0.252467101975189,0.957624482110188,-0.00473854533886209,-0.0475525479261752,0.00845299174679366,-0.0363504806376773,-0.106629718876715,0.208788913040938
494,1242,0.47670501436886,0.251988624349526,0.957674645634566,-0.000824274478782634,-0.0481347572714589,0.00815059319459046,-0.0409808719904614,-0.0174710758750354,0.135519798937874
495,1243,0.476851254123543,0.251479203345133,0.957715452308167,0.00171566906335492,-0.049393302935248,0.00808883824631853,-0.00941313773840172,-0.0791734052922846,0.122753576815532
496,1244,0.476985973433751,0.250922950202872,0.957756841914045,0.00293597264085599,-0.0511882289414187,0.00821957906028896,0.0179120546572463,-0.0449999723445326,0.100512765107213
497,1245,0.477116977641324,0.250337542043907,0.957793693992266,0.00457002892322892,-0.0530237993768672,0.00736292705114431,-0.0640111841063897,-0.0429940614327065,0.0689064605780533
498,1246,0.477240688879089,0.249735820958147,0.957827717507863,0.00561025363955015,-0.0556251139445986,0.00669194598962303,-0.0599667780054071,-0.050176811428789,0.0629160530952147
499,1247,0.477372741092925,0.249132775361463,0.957855272231864,0.00764872149964893,-0.0575442711486662,0.00548950645480209,-0.0379360549950221,-0.0501099431456037,0.0393689208171137
500,1248,0.477498070162373,0.248585147375305,0.957817389465381,0.00936573447616967,-0.0578134794322444,0.00451070363183519,-0.0205354532516173,-0.0303108760735765,0.0766913020465524
501,1249,0.477586081167477,0.248109420188379,0.957848058336902,0.00876191255441377,-0.0570849641751286,0.00552351403850664,-0.0888296446440742,-0.030996055816865,0.180571757272447
502,1250,0.477765887779923,0.247553026825404,0.957922082266236,0.0104233109608465,-0.0571385797717844,0.00616562541185463,-0.0763852956610928,-0.0124121875582825,0.173315415219576
503,1251,0.477896138675698,0.247139449932042,0.957945422317194,0.0109619947103329,-0.0542148928168988,0.00672455715624955,-0.0533604112633778,0.0540074157091361,0.152028450140989
504,1252,0.477990331250679,0.246834389762578,0.958032888300204,0.0101694858875599,-0.0493834721690814,0.00773899275517244,-0.101094367030959,0.0481837183218913,0.143663855660222
505,1253,0.478040122623651,0.246640917744193,0.958060282376616,0.00876475111062867,-0.0435521244357355,0.00858628895279217,-0.0911065847337808,0.083016892926971,0.137450344356659
506,1254,0.478203360224841,0.246266184301672,0.958080513964676,0.00882561628868333,-0.0413243078861586,0.00809624163560634,-0.106739278169924,0.0118030427556163,0.036521794956109
507,1255,0.478245029609509,0.246027364966408,0.958173352784194,0.00727958206102876,-0.038249074635567,0.00791016211158359,-0.114989949523251,0.0395573377719432,0.0237303317323654
508,1256,0.47822924295231,0.245831885395352,0.958173738639797,0.00635820709414,-0.0352570517519089,0.00616014088304938,-0.126860896739201,0.042307600362485,-0.0206716030533055
509,1257,0.478140345240549,0.245695944116386,0.958248001239598,0.00327864734150937,-0.0316587362081479,0.00546920686311833,-0.057435904896081,0.0731918517895333,-0.0331889188647277
510,1258,0.478166783720346,0.245329807367549,0.95835116366972,0.000425843655605406,-0.0310219577836393,0.00541287983090649,-0.0922546721154679,0.176795424826763,-0.0232633460250234
511,1259,0.478075156202354,0.245072680172232,0.958449133957087,-0.00261147729883805,-0.0296507158061964,0.00495546117136992,-0.0961169494437265,0.124016954135274,-0.0454053355434987
512,1260,0.477991770777052,0.244729104598013,0.958540530569902,-0.00478577023398672,-0.0296241216796436,0.00419348901657856,-0.123781795730294,0.152197368921969,-0.0577071794154391
513,1261,0.477847813481007,0.24438583557896,0.958632458039328,-0.00851848116732713,-0.0304099160098648,0.0041614607151472,-0.0437164777287188,0.0905697205860186,-0.0603601835086062
514,1262,0.477710404311539,0.243997605651817,0.958719210655638,-0.0106061330727957,-0.0318219039083571,0.00316252108245372,-0.0640317585670146,0.0484436959803512,-0.0982756337050362
515,1263,0.477565876188129,0.243576073165386,0.958801988081372,-0.0128428061474505,-0.0347185020768957,0.00266449177482684,-0.0419189758020849,0.0324434920215594,-0.0806293291977337
516,1264,0.477445457712274,0.243120063558695,0.958876860211919,-0.0135441095646284,-0.0375965851601722,0.00163061281284734,-0.00887673931993417,0.0632797197334024,-0.110476262321928
517,1265,0.477360698239141,0.242663558973166,0.958940366243833,-0.0134636791979634,-0.0400175058237036,0.000643636962125933,-0.0174474206958789,0.0464030728933022,-0.105173623448639
518,1266,0.477308213000905,0.242214268676199,0.95899522343197,-0.0135472845334966,-0.0415276361224297,-0.000165313063661822,-0.0195590507037327,0.103910262057714,-0.114015583656211
519,1267,0.477284007809097,0.241782734510551,0.959043666337139,-0.0122619245533701,-0.0427178403012791,-0.000568663039708242,-0.000427192127230403,0.0519449896363112,-0.0726386311592528
520,1268,0.477285014919582,0.241357014775983,0.959091145729197,-0.0111059922684264,-0.0432357947637503,-0.000453136202908111,-0.0219033215737417,0.0434806027381833,-0.0329914999592835
521,1269,0.477320140968006,0.240925575314341,0.959138374505716,-0.00865082478629622,-0.0436975383666543,-0.000660258021545205,-0.00228485154291599,0.0300042198364747,-0.0338432835486208
522,1270,0.477382403021562,0.240477810677438,0.959187500218213,-0.00631214696012199,-0.0437308373244592,-0.000538929566884736,-0.0252940716072717,0.0382206173964339,-0.0102296133647838
523,1271,0.477427834911578,0.240043356423698,0.959157621759327,-0.00499959318055399,-0.0435045761207279,-0.000521866040930649,-0.0405485188544106,0.0623731777318529,-0.00152647531448271
524,1272,0.477504213106243,0.23954673758962,0.959110671105451,-0.00346026844440819,-0.044381702999245,-0.000948077712636789,-0.0938295114403472,0.0909575940154475,-0.00923683494802122
525,1273,0.477544986834938,0.239058535572182,0.959069621358684,-0.00253968297081186,-0.0449918056190384,-0.00147284519766522,-0.0857517083706772,0.0794581278762568,-0.0175841647574484
526,1274,0.477588104633688,0.238531719976793,0.959033744103601,-0.00249614510392221,-0.0464526185794947,-0.00145107400415212,-0.0760195125846517,0.127348050476264,-0.00384793268133145
527,1275,0.477584120043182,0.23798498939969,0.959011857898293,-0.00299683660351141,-0.047255092211007,-0.00178816051362145,-0.0880048582650007,0.0902349083726944,-0.0278023576255412
528,1276,0.477541191651408,0.237434279971633,0.958996740353503,-0.0037937925719692,-0.0484897072928889,-0.00148014207110489,-0.0500621419493491,0.122522003487682,0.0111522640143933
529,1277,0.477458419888136,0.236887226170512,0.958994037038733,-0.00509564710342061,-0.0490249384525058,-0.00107432717639864,-0.0273607388430555,0.0884289175576324,0.00646244642299271
530,1278,0.477348567674311,0.23634120229668,0.959000882340193,-0.00656357970665619,-0.0496441839212354,-0.00104093361550325,-0.0253365843407835,0.0578415078357297,-0.0189515277927026
531,1279,0.477224160157745,0.235795149670269,0.959015359471117,-0.008029181949278,-0.0503187521841095,-0.000776548541276109,-0.0326447444973264,0.0284141662502448,-0.000914505647607925
532,1280,0.477093609879189,0.235251239772311,0.959038262923759,-0.00923949403045223,-0.0510826740098788,-0.000498878392084429,-0.0149056869431345,0.00635635569629436,0.00169068310115666
533,1281,0.476954390490968,0.234719160776502,0.959074771084103,-0.0111389885602666,-0.0515503400223805,0.000761244067537608,-0.0115978326116881,-0.00516990781862021,0.0587170159352657
534,1282,0.476813045023268,0.234201002647747,0.959124651578061,-0.012020142208411,-0.051543215514703,0.00172279411981964,0.00493601323660802,0.00630560821928076,0.0570119515256115
535,1283,0.476678774696613,0.233694743519985,0.959187270133035,-0.0121715270694282,-0.0514573274314748,0.00295435475932572,0.0507723194333555,-0.0182137625057228,0.0839119760482522
536,1284,0.476552583802542,0.233196466726808,0.959264010858332,-0.0119587691554765,-0.0511911599724779,0.00422917376087758,0.0516753916930521,-0.0412558538607571,0.0887168589653992
537,1285,0.476433844983929,0.232703475963007,0.959354809157453,-0.0120632892927223,-0.0505844999861341,0.00576264264972864,0.0386708549513251,-0.033715177079149,0.105269599102992
538,1286,0.476331249403883,0.232217627806579,0.959457153091477,-0.0111929183597068,-0.0503892886813311,0.00703794741230301,0.0430946657482165,-0.0253951881557234,0.112404794517324
539,1287,0.476247516417389,0.231741542491634,0.959570774846365,-0.0104821392914909,-0.0496759028398324,0.00837659754639511,0.0521064250111402,-0.038312445598331,0.106255566883003
540,1288,0.476183168644155,0.231266202294795,0.959692389209763,-0.00952431600252567,-0.049488198264911,0.00948855593226497,0.0284701121098721,-0.00350131482274289,0.104856550205602
541,1289,0.476137731581845,0.230790272248424,0.959819627376972,-0.00811094825851748,-0.0492415616868325,0.0101798728561766,0.0356739192208937,0.0206006123820429,0.0846195911705452
542,1290,0.476098639532147,0.230336961364824,0.959950551779429,-0.00735156650006389,-0.0481047932843672,0.0110117264387619,-0.00939156600607887,-0.0116543542512833,0.089107373466553
543,1291,0.476069369675456,0.229886874977341,0.960079764081416,-0.00602206928330585,-0.0481495306180218,0.0109429843774468,-0.0346213714691613,-0.0112913154216321,0.0521368226356588
544,1292,0.476047762177736,0.229443760977826,0.960211823909006,-0.00547792134909108,-0.0478425589924668,0.0117911731947714,0.0246320713354908,-0.0329111451417228,0.0847550515243943
545,1293,0.476044965802308,0.228992842736345,0.960342224505918,-0.00391165391699468,-0.0484939936220874,0.0117990890780328,-0.00823618793264053,-0.0479661239279695,0.0605909521911638
546,1294,0.476080385778382,0.228535084533957,0.960465421578702,-0.00176864095574687,-0.0489113019120885,0.0116886922298594,0.00810147965710699,-0.0680028977124804,0.055647953206468
547,1295,0.476114272562029,0.22807457292993,0.960594215868081,-0.000407201259618885,-0.0481406931292361,0.0122395855642744,0.0770517389183303,-0.0166827663960333,0.0694741130607512
548,1296,0.476153875358099,0.227627700213485,0.960722616847688,0.00152440380215246,-0.0469897655925251,0.0122708654621495,0.0569019955139028,-0.00201672049803825,0.0597845581969089
549,1297,0.476180212928336,0.227206720800276,0.960853525682197,0.0019313616315196,-0.0453100247578625,0.0125727765716278,0.0506971604758336,-0.039566723528426,0.0509451910705954
550,1298,0.476195590594842,0.226794445722199,0.960984932504645,0.00159631508013245,-0.0444211415482519,0.0124967730762861,0.00742889127061437,0.0441020130054873,0.024730527625335
551,1299,0.476195314395227,0.226409102789938,0.961117063664728,0.000398833878532406,-0.042470418680076,0.0123616680478714,-0.0190123137321182,0.0314380929778369,-0.00459025155957795
552,1300,0.476173750333402,0.226036803448901,0.961248643798389,-0.000672284269063324,-0.0410381574724555,0.0121665695221039,0.014353900654898,0.0280751779251457,-0.0130652086280363
553,1301,0.476132874705085,0.225664650202974,0.961380189518905,-0.00203761318399718,-0.040273100710906,0.0120433619437778,-0.0100010020390117,0.0635077320998884,0.000325771461190021
554,1302,0.47609605597068,0.225290693573817,0.961510451589207,-0.00202425637284118,-0.0398701909715328,0.0118935554892856,0.0108721670395898,-0.0103119801672009,0.0253046723073538
555,1303,0.476072429368202,0.224911894333352,0.961639279103592,-0.00176609071185813,-0.0400089551808593,0.0119520498298059,0.0207366403944037,0.0152092429300582,0.0418729187014861
556,1304,0.476067976384524,0.224533052680738,0.961767473242904,-0.000684017361260851,-0.0402191972465108,0.0121558261568002,0.0298331592199185,-0.00643059469214448,0.0719972005179876
557,1305,0.476084302147242,0.224155503948358,0.961895459411447,0.000518531096837045,-0.0408365012390742,0.0122447342553242,0.0449425674092449,-0.0210785967343738,0.064582687975231
558,1306,0.476117414770535,0.223787739365211,0.962023427194135,0.00116722131510216,-0.040323253567172,0.0126757829057933,0.0150617604509278,-0.0346595430459478,0.0780261830263308
559,1307,0.476166789007037,0.223419017658329,0.962149134733847,0.00213434670371721,-0.0407553550380653,0.0127562142384047,0.0442230495936933,-0.022453393810256,0.0564224016433952
560,1308,0.476242318104995,0.223047541113293,0.962265637411909,0.00377465560403951,-0.0410479216230477,0.0119297704766236,0.0342352367044733,-0.00860343834600092,0.000524713213466226
561,1309,0.476333017336852,0.22270030919489,0.962371247864085,0.00480148623948157,-0.0396526267035057,0.0113407850958065,0.0041382156144617,0.00485379667591166,-0.00290511216295597
562,1310,0.476427540818467,0.222370114989413,0.962468896255944,0.00515290870326034,-0.0382991051697186,0.011067200715005,-0.002111752908461,0.0729568321272266,0.0141535878319424
563,1311,0.476525520757009,0.222063071620033,0.962561172801149,0.00571775863964639,-0.036636312560904,0.0109681644345456,0.0117475950047724,0.0317583799566821,0.0326810369456084
564,1312,0.476635286072018,0.221779320182316,0.962644735169167,0.00746456563652183,-0.0346933117066881,0.0102141031107182,0.00422122984200214,0.102240531404656,0.0161384549862573
565,1313,0.476770680238596,0.221527061711186,0.962718642279898,0.00962397667391097,-0.0323414615316609,0.00966407460438051,0.0227494725092,0.0636674938874578,0.039474306887252
566,1314,0.476951561006753,0.221301279337297,0.96277994256703,0.0123691928343495,-0.0299888293893868,0.00898397910548108,0.0649842851290028,0.0668487746090395,0.0229502359961856
567,1315,0.477146804221121,0.221080557644833,0.962834707611512,0.0146782362928357,-0.0284245737906015,0.00807578031549438,0.0409399169181276,0.0595808663299832,0.00266127238501896
568,1316,0.477350786703227,0.220877086579454,0.962881206814443,0.0157986920836108,-0.0270078227696385,0.00728546082081526,0.0527537888493795,0.0161693303554238,-0.0222530123374866
569,1317,0.477557612110739,0.220682671824877,0.962916634133204,0.0167884395248151,-0.0253703627957248,0.00598724154688319,0.0129078854776902,0.0847551987363925,-0.0589563803018329
570,1318,0.47775430265674,0.220505811519748,0.962945698692227,0.0165645065592868,-0.0239326440881103,0.00535569472391787,0.04999230036129,0.0708556308129904,-0.0503082776491182
571,1319,0.47795970677225,0.220344538145816,0.962965126794034,0.0172496245967998,-0.0224533396656625,0.00434725232356737,0.0232939470793472,0.0669305412094464,-0.0476951431184034
572,1320,0.478176519229761,0.220200273114972,0.962974108650374,0.018238446386114,-0.0201372231415245,0.0031427213689273,0.0100898750246664,0.0685134124429198,-0.0599660104792699
573,1321,0.478413848494419,0.220058760021822,0.962969899911092,0.0196928341954627,-0.0190929935984727,0.00148108471684478,-0.00371819220208436,0.0849537989413466,-0.0830069063817775
574,1322,0.478649720290337,0.219910765386159,0.962959529654296,0.0193333677719101,-0.018553469858548,0.000495098091619152,-0.0152418461170577,0.0723326940836698,-0.0832263264585343
575,1323,0.478886869576858,0.219750178905884,0.962940690071257,0.0200044923363558,-0.0183844730881073,-0.000991900589564556,-0.0399044534517741,0.049793123554468,-0.0923209634378807
576,1324,0.47911333220699,0.219572101170929,0.96291837988686,0.0206854643540836,-0.018684355915665,-0.00177428457443917,0.0167244350228424,0.056604689609438,-0.0566118957680133
577,1325,0.479346649880469,0.21935718440551,0.962893557294996,0.0214380887350854,-0.0200095966876557,-0.00271049347566959,0.0191068180314604,0.0170936740927495,-0.0550517178800702
578,1326,0.479562479367344,0.21912562824207,0.962872736990573,0.0209677131845184,-0.0216100393060926,-0.00236338172421098,0.0653013308104985,0.048005281032731,-0.00578511413422365
579,1327,0.47976592038094,0.218864547886098,0.962861206512774,0.0202182035192503,-0.0237828092338841,-0.00190465623570273,0.106166568857483,0.0241780141960491,-0.0150023289945023
580,1328,0.479968138793364,0.21859271202865,0.962854518111887,0.0202193372520838,-0.0247822021676201,-0.00148128080656369,0.0951210139946075,0.020750627306407,0.00694225044183855
581,1329,0.480171690600067,0.2183289235615,0.962849329110103,0.0205701956444758,-0.0243549041925302,-0.00178762286470593,0.0698583288540099,0.0650307368870938,-0.0384833689867672
582,1330,0.480383701190249,0.218085895165623,0.962840199499011,0.0209570904352134,-0.0239419620858082,-0.00211665799215673,0.0316376722163208,0.055536155786372,-0.0324576459349953
583,1331,0.480596284187754,0.217870223388069,0.962827496746101,0.0213989919336635,-0.0232972430223926,-0.00266962969333266,0.0247464303157757,0.0186552365886909,-0.0489773675212676
584,1332,0.480819168314565,0.217659863917872,0.96280934209624,0.021853022340978,-0.0239261369044342,-0.00346340704039582,0.0349359743405751,0.0132979541522198,-0.0671492990639227
585,1333,0.481059918892161,0.217442579386566,0.962785185583078,0.0224895359207391,-0.0244279034810639,-0.00425596057693329,0.0360066248222503,0.00526187952892081,-0.0730708389048569
586,1334,0.481342280687637,0.217218977511864,0.962748478055631,0.0241730439577101,-0.0252857398709717,-0.00522790986127325,-0.00712857223587699,0.000297492073096393,-0.0631237697250013
587,1335,0.481627045425785,0.216972897827195,0.962712109766064,0.0254768030990853,-0.0271096109706176,-0.00555962902221458,0.047673704168939,-0.0661269658802444,-0.0367707061531447
588,1336,0.48192297589719,0.216705568386602,0.962677346767285,0.0261816989023526,-0.0285728660862131,-0.00538432026518188,0.0499646873096329,-0.0660741091291375,-0.0121944138964276
589,1337,0.482220814574684,0.216420713218317,0.962646670007411,0.0263288254219695,-0.0297361168785933,-0.00536001353506108,0.0688763082403543,-0.0605752944796772,-0.0514728392162329
590,1338,0.482520956628173,0.216112336755917,0.962616737031629,0.0266190595794298,-0.0314528082675236,-0.00515006580768392,0.0566408244365616,-0.0466772618099955,-0.023363472854853
591,1339,0.482801132162694,0.215796137627025,0.962591623341815,0.0254939472634341,-0.0313953525694796,-0.00491254664325157,0.0315188669119341,0.00756635308345778,-0.0539458653714965
592,1340,0.48306663799218,0.215473980217463,0.96256559109193,0.0248176979152805,-0.0318771556324052,-0.0048977726098265,-0.01437332032344,0.000400227787499827,-0.0377921886626636
593,1341,0.483300766215841,0.215152640541052,0.962543357238684,0.0233471527217576,-0.0318347063944833,-0.00435759412071799,-0.0321495828214719,0.00810500874763148,-0.00942386892685233
594,1342,0.483522277152487,0.214827778324813,0.962525923656291,0.0225981392309108,-0.0320069219657029,-0.00371479075124628,0.00692009375481748,-0.0238738861228685,0.0242139122617847
595,1343,0.483749691254485,0.214503945932329,0.962512625582976,0.023067592937963,-0.0316553833819706,-0.00316764325519491,0.0158885099905207,0.0117198617294007,0.0515008657323151
596,1344,0.483994982407499,0.214200561004817,0.962499732914007,0.0246204918761105,-0.0304511676433106,-0.00275877067218716,0.00980122675448918,0.00840529736955565,0.0749368525808786
597,1345,0.484257356535841,0.213916296892755,0.962487541091114,0.0257787482253235,-0.030120275801179,-0.00233872858059188,0.00607549725859309,-0.0119680164347376,0.07761183487862
598,1346,0.484537554871136,0.213661344444295,0.962471332169152,0.0275792528886874,-0.0288233833672945,-0.00257301940368517,0.00452179316515317,-0.0187537718838329,0.0407614905711422
599,1347,0.484836578345513,0.213441068904709,0.962450823621969,0.0285535553837272,-0.0270770383621345,-0.00256288180417693,0.00741562929909819,-0.0487045172420372,0.0304424841134716
600,1348,0.485153483929348,0.213238262395879,0.962426357920964,0.0288171564345533,-0.0257072063339115,-0.0025784099765586,-0.0479367783537053,-0.0998213528186836,0.0189507701190776
601,1349,0.485471878085177,0.213030025884672,0.962401121370094,0.0281936508474815,-0.0259400717190209,-0.00223218649422619,-0.0292229005263715,-0.0845227047392093,0.012428723566671
602,1350,0.485791308469532,0.212826073228408,0.962371644230677,0.027935882490136,-0.0252618270754339,-0.00236776926541341,-0.0776061012967502,-0.0780539753100351,-0.00177516988286027
603,1351,0.486106654776811,0.212621460908269,0.962336385885523,0.0277625412439021,-0.0255491997909134,-0.00268796245913893,-0.0722998042386377,-0.0626712142334276,-0.0104814503701823
604,1352,0.486421027044195,0.212416150400047,0.962292713229159,0.0282545501986945,-0.0260705054764792,-0.00305110082030468,-0.086670630901003,-0.0346258472738464,0.0261666505965636
605,1353,0.486731287522899,0.212223269909065,0.96224485136963,0.0281070385239224,-0.0258004358220657,-0.00305333745462626,-0.113332031462845,-0.0842538491106987,0.053584707088757
606,1354,0.48706345478212,0.212022816296433,0.962191880033226,0.0285976156448228,-0.0265420145611927,-0.00279264143895119,-0.057406833520603,-0.0421363994195838,0.0744615104801856
607,1355,0.487410768870738,0.2118071381989,0.962140598536484,0.0294654703845956,-0.0268313986810855,-0.0023222196128952,-0.0275009626447543,-0.0868610096481156,0.0917534494279696
608,1356,0.487776966081781,0.211580781387076,0.962088467016938,0.0308521184771462,-0.026530877063139,-0.00200306925348589,-0.0211744413182075,-0.013650424950574,0.0965656003971832
609,1357,0.488188075196972,0.211348807829134,0.962024353355622,0.0334441719934975,-0.0267950507985378,-0.00342820171532057,-0.112442684651013,-0.123732622166755,0.0164100729224392
610,1358,0.488605523465499,0.211096688153998,0.961959268768182,0.0330926494620949,-0.0276379261748525,-0.00335469774415588,-0.0297326703074627,-0.010250855319137,0.00858199657213338
611,1359,0.489027450684233,0.210826920065804,0.961892530311847,0.0328670365896699,-0.029112885632707,-0.00374361546806189,-0.0115337754305535,-0.0608628472947354,-0.0273595499905867
612,1360,0.489441856313662,0.210542813840021,0.961816875643119,0.0328683086373726,-0.0293341506717953,-0.0053065360637287,-0.088402463297113,0.0338994329066376,-0.0980989168987383
613,1361,0.489825532984908,0.210258191281475,0.961731211721388,0.032540092704412,-0.0286789826155529,-0.00641205357339937,-0.115640566580507,0.0709547815315722,-0.0642687741595905
614,1362,0.490183356258382,0.209991700229036,0.961637038537813,0.0332424734017385,-0.0268139482894876,-0.00726371186518437,-0.090088194969519,0.160933121330951,0.000337955562565177
615,1363,0.49051204094542,0.209750751108416,0.961538895914238,0.0331919649163471,-0.0252837282924976,-0.00797605336789029,-0.076637920997297,0.145842921931154,0.00671328116640218
616,1364,0.490822241437476,0.209544961182816,0.961430472037394,0.034332295480177,-0.022957962845955,-0.00935337321788994,-0.0836288124213105,0.0625908279505439,0.00289572957236331
617,1365,0.491107465046856,0.209345487913112,0.961322309359619,0.0333355327444398,-0.021637973070681,-0.00945498433268131,-0.0367460447555984,0.11031440632006,0.0422642740282415
618,1366,0.491379073945011,0.209149256883867,0.961221719749107,0.0310224709732866,-0.0207126251264543,-0.00897289875412144,-0.0572273969998917,0.0979439820752436,0.0582805683114771
619,1367,0.491632573893968,0.208970498546681,0.961135607167453,0.0278889686361257,-0.0191542612301202,-0.00740104370367726,-0.0806134062990781,0.14295202042747,0.104736482536141
620,1368,0.491865971511414,0.208811435867004,0.961065860014613,0.0243100742116547,-0.0188238463269005,-0.00585518508173735,-0.0540817174596998,0.0525646332624613,0.0700126244698274
621,1369,0.492094941004837,0.208643701580612,0.961009434716344,0.0214727255295377,-0.0187306998869016,-0.00498461419244067,0.00358704589568757,-0.0183157447502985,0.00343022706084917
622,1370,0.492322163153596,0.208434422516505,0.960964375056458,0.0184505652043097,-0.0203036358129273,-0.00452538823206282,-0.0153255971567579,-0.000424537671956142,-0.0411186980243049
623,1371,0.492553860648348,0.208213389804705,0.960920678420058,0.0168057155621685,-0.0201971958113009,-0.00520286506033434,-0.0874238433187428,0.045143145924108,-0.0945561878488787
624,1372,0.492764650857017,0.207985467013572,0.960880680739085,0.015272731424946,-0.0206051329984925,-0.00516290776658049,-0.049953151887074,0.060922424077511,-0.0633296610924132
625,1373,0.492964252952425,0.207766846671561,0.960841582020246,0.0147465802619475,-0.0203518793329434,-0.00543884704518134,-0.045358489109411,0.119701680491595,-0.0465965344959453
626,1374,0.493162478283321,0.207572889166237,0.960804270280296,0.01549767717554,-0.0203446404471672,-0.00456184856162053,0.0311186784309163,0.0600620116819469,0.0496575982063358
627,1375,0.493350791303683,0.207387263966831,0.960777457693185,0.0164222102462488,-0.0201547189347631,-0.003752114428069,0.0257070020751111,0.03188724653667,0.0754080561840394
628,1376,0.49353818631295,0.207207395267091,0.960762751555989,0.017069840468967,-0.0201004185003653,-0.00246965124782854,0.0836378767227314,0.0117371658914598,0.0914948436660673
629,1377,0.493747355820665,0.207028028962747,0.960754921967681,0.0181381455934403,-0.0197492614451772,-0.00198130525592466,0.0572049869694846,0.0291799436103381,0.0519258455390574
630,1378,0.493977524264972,0.206847217492551,0.960751130511969,0.0189110257919507,-0.0190475589410791,-0.00172267497901189,0.0208441350491511,0.0541528970955342,0.0216241664945804
631,1379,0.494214724707425,0.206666539209116,0.960748382811741,0.0187905882200503,-0.0186950085259396,-0.00173046238346391,-0.0416007498590651,0.0640178633261957,-0.0144649714306167
632,1380,0.494435846187688,0.206486862178861,0.960746614034009,0.0177084489720848,-0.018305812736219,-0.00199316469148794,-0.0501099785102263,0.070197645378472,-0.0768847252469996
633,1381,0.494646082023392,0.206312008545908,0.960735910572363,0.0171822168561311,-0.01817082051408,-0.0030634597317559,-0.096966161405256,0.0629634826777162,-0.113927300002923
634,1382,0.494826271347636,0.206154915186414,0.960721525742924,0.0150275644613338,-0.017274736430394,-0.00334748047171512,-0.103999491669307,0.12128096604678,-0.0986313104027294
635,1383,0.494963541170082,0.206019600237115,0.960704817816213,0.0125120529296006,-0.0163035969905614,-0.00360620377279765,-0.0998858113803651,0.0888719683291463,-0.10047660297124
636,1384,0.495047948565529,0.205907388207999,0.960685174307158,0.00992363133348514,-0.0146085074566506,-0.00367865932419611,-0.105178520574915,0.131811464284014,-0.0765784520489174
637,1385,0.49509105316106,0.205812716876582,0.960663560846867,0.00847636814407401,-0.0125968657485549,-0.00415919629291358,0.0261662414658356,0.0758046984784494,-0.104974846601221
638,1386,0.495114313102289,0.205720931011926,0.960637360696569,0.00701153205718563,-0.0108922982893431,-0.00493761772166444,-0.03685179724895,0.158502324258979,-0.101522684985801
639,1387,0.495109739229294,0.205647735232935,0.960606610710369,0.00504769048461726,-0.00804652468234052,-0.00589861900404426,-0.0547367893119107,0.183179000230362,-0.122140969576266
640,1388,0.49506429120478,0.205596134900055,0.96057639482803,0.00162113674275436,-0.00563388459240014,-0.0060257851558917,-0.0707587527044136,0.199139030367719,-0.0916447810803046
641,1389,0.495003181688368,0.205567979240811,0.960544500846656,-0.000740911129500072,-0.00317110178045732,-0.0064461310213866,-0.0708062804093934,0.183084178341028,-0.0782517442958115
642,1390,0.494933394545169,0.205544233564007,0.9605156122069,-0.00308480407752161,-0.00211459742614533,-0.00644109064212136,-0.0140741732300898,0.121458729954613,-0.0780105558316644
643,1391,0.494865241347672,0.205505668097005,0.96049098019413,-0.00529031187805598,-0.00213291732823289,-0.00638796251973462,-0.0403350039184423,0.083151332203249,-0.0683746225768481
644,1392,0.494802826800584,0.205453107686303,0.960476683574701,-0.00740907701127105,-0.00311413027502037,-0.00562892810051232,-0.0660157984874805,0.104135372712049,-0.00756332813325776
645,1393,0.494726582973221,0.205391516663234,0.960481342711623,-0.00993992107477482,-0.00420512455554068,-0.00411771177138175,-0.0479681766860252,0.100469700269646,0.0276777712365843
646,1394,0.49467313534783,0.205347050246972,0.96049941427822,-0.0107413795654631,-0.00449128494977108,-0.00231904320004725,-0.00163438749935756,0.0572472533830935,0.0626636866295867
647,1395,0.49461673984098,0.205279819805759,0.960534477218044,-0.0111462811088876,-0.00569305212639568,-0.000558800062757052,0.0129462014203827,0.0496176355879998,0.0687481554822411
648,1396,0.494572943026017,0.205218936002833,0.960578200834609,-0.0103987908863201,-0.00534142621485653,0.000920320879636266,-0.00367173404908243,0.0044831803588421,0.079206348371188
649,1397,0.494552264891126,0.205158640251752,0.960621918515923,-0.00814478237560475,-0.00586998543518245,0.0017252005904393,-0.0183642792091058,0.0108150934554381,0.0815241291360497
650,1398,0.494538643493621,0.205116971719916,0.960666182576974,-0.00632249467271234,-0.00403518779899021,0.00273686247148905,0.0205753797780516,0.0312949237319434,0.0771271724300834
651,1399,0.49452431059318,0.205087016000756,0.960705487746153,-0.00454235574907533,-0.00305973609990894,0.00299922372901679,-0.00111435424055515,0.0331614177297421,0.0421090209724005
652,1400,0.494497215202516,0.205060417192577,0.96073707808687,-0.00337352838450867,-0.00252017820655453,0.00298800642351557,0.0185333475649551,-0.00874527093096445,0.0128228359583695
653,1401,0.494448433285757,0.205036222920924,0.960760716181894,-0.00286576823991227,-0.00133993442118225,0.00273706995617256,0.0472551250276088,0.019775147647401,-0.0134949750417486
654,1402,0.494335304849635,0.205004699245015,0.960767611986273,-0.00302469734881083,-0.000726370895857053,0.00240613660254729,0.0113885552198566,0.081876408537728,-0.00703225540488678
655,1403,0.494251112226934,0.204982401045309,0.960771040740623,-0.00373837987577686,-0.000316468285676424,0.00212085141109134,0.0408750603232554,0.0938774047400998,0.00382416138277875
656,1404,0.494164093547677,0.204970219123882,0.96076953813103,-0.00446944136731148,0.000337250807955171,0.0014683712673722,0.0337421027462531,0.10773820098752,0.0204270482458349
657,1405,0.494086429460637,0.204969549065092,0.960764395855998,-0.00507916446379611,0.00131068889583808,0.00074417488640465,0.0232444205386534,0.105321612873383,0.00628365874199774
658,1406,0.494020407373479,0.204979524525284,0.960763441990082,-0.00612162701487858,0.00183629760677724,0.000820404419275682,0.000738929787384887,0.125631202140231,0.0280493662588215
659,1407,0.493965380615367,0.205005572994571,0.960770417209971,-0.00696757073004144,0.00259637635635512,0.000994918476828396,-0.0104714774017012,0.158850501316773,0.0129235051937625
