,Frame,CoM pos x,CoM pos y,CoM pos z,CoM vel x,CoM vel y,CoM vel z,CoM acc x,CoM acc y,CoM acc z
0,279,14.9664996311939,0.789146111785938,0.962880492114905,-0.45716147570476,-0.0587164376683408,0.000731447277984049,-0.612789020100474,0.466911785096725,0.777792126188457
1,280,14.9618464558275,0.788636113681806,0.962809122808409,-0.464425638368403,-0.0512259468132386,0.00678473384346384,-0.529267790224582,0.501641095548892,0.614780189177102
2,281,14.9570730670001,0.78800919781164,0.962790915864967,-0.471515790393215,-0.0454939619462076,0.012213065206856,-0.499074253313795,0.595135757852902,0.519901690454878
3,282,14.9523900130439,0.787508334981439,0.962807842168685,-0.475750539463379,-0.0400236683480527,0.0169167651967811,-0.499528931704174,0.5654621260746,0.442688957816774
4,283,14.9477357251846,0.787044554754473,0.962846441507613,-0.478998297892568,-0.037921282552491,0.0210026445729729,-0.427905949695043,0.38562954558528,0.377943287315337
5,284,14.9431400725953,0.786637996422833,0.962914223438149,-0.479117016508919,-0.037847506750747,0.0237037751133916,-0.226381703944517,0.11685425774467,0.304338810405314
6,285,14.9385000873892,0.786264039213307,0.962971918376684,-0.478609326212096,-0.0379003355766803,0.026277028695446,-0.171007830650216,-0.0497939645861316,0.322595265024754
7,286,14.9338230229696,0.785883938196471,0.963034959795742,-0.479233938176399,-0.0383494229039789,0.0291880716720731,-0.163313240528443,-0.0919516419538235,0.377746369159649
8,287,14.9290608186233,0.785449221639154,0.963162719671355,-0.48202753833702,-0.0402366874302664,0.033543732113883,-0.14230162214203,-0.0338928618075906,0.478948812753755
9,288,14.9242216713282,0.784936174944201,0.963440530271564,-0.486376776609186,-0.0456132995785434,0.0384568564420135,-0.20859638396816,-0.0702290120435432,0.524217513624953
10,289,14.9192568712085,0.784288190165884,0.963819921566008,-0.491480181812517,-0.054283451710392,0.0437718915521219,-0.309022789431433,-0.199534173015982,0.539209903714363
11,290,14.9142738463126,0.783491876364594,0.964268340571289,-0.496950612951364,-0.0633956442051867,0.0478810957579118,-0.373369820308819,-0.221232614940977,0.430403228603224
12,291,14.9092743295032,0.782722557899447,0.964776573641845,-0.50184156750862,-0.0696097961326881,0.050475130840882,-0.460605362887686,-0.0862200268611794,0.335049404595354
13,292,14.9041851978836,0.781869391912469,0.965311032351993,-0.506761744522406,-0.0753655973146814,0.0522550157349538,-0.360895330703589,0.0414251329995436,0.29814961063767
14,293,14.8991362474621,0.781000229350265,0.965868262452604,-0.50964518238695,-0.0795348870461271,0.0550758375684805,-0.451993942196657,0.111358488911208,0.382696439413661
15,294,14.8941183423744,0.780131157494971,0.966462672328932,-0.509870839224581,-0.0820862421900038,0.0587706170313996,-0.558490372719951,0.0496513986830919,0.449806594615249
16,295,14.8891119368537,0.779151244963709,0.967090273427633,-0.513968643801638,-0.083819175225366,0.0608177147002215,-0.497087171517833,0.113321834801709,0.379105948454734
17,296,14.8840701839941,0.778128431157332,0.967726083422466,-0.521292304870628,-0.085054659523756,0.0600525625436951,-0.330248452391581,0.185375365425856,0.172243190666617
18,297,14.8789541028215,0.777054336576803,0.96834908537709,-0.528785489871423,-0.0856917187840706,0.0574447418865698,-0.189353723124183,0.276715390888126,0.011103684585271
19,298,14.8737777966588,0.775959168051145,0.968955404957869,-0.535493675868105,-0.0848416322245846,0.053786699506381,-0.0352700712394634,0.386775338906413,-0.108881134249598
20,299,14.8685239784456,0.77482573485184,0.969545943568212,-0.538070181678261,-0.0846934725443933,0.0512624139442334,0.21865934174799,0.508637703464149,-0.0466885157531347
21,300,14.8632370483964,0.773660996395059,0.970140664056965,-0.535765839512103,-0.0865022661871841,0.050784758343512,0.322948516940708,0.606794259168524,0.0839255034339264
22,301,14.8579178442678,0.772461110651604,0.970751433753516,-0.531453294039898,-0.0884521362206099,0.050843448607766,0.39401612910453,0.66660615009914,0.0915928296473336
23,302,14.8525274902124,0.771227857323579,0.971358028643076,-0.530664085810585,-0.0917846905755324,0.0493695084012943,0.418703883683678,0.595270407310376,-0.0171929336010856
24,303,14.8471012878052,0.770017974167963,0.971964155588501,-0.527652325684487,-0.0946560781280858,0.0483958558166294,0.262723731104276,0.453382449366833,-0.0669426768242949
25,304,14.841584367621,0.768896549275169,0.972529483258976,-0.525504801650458,-0.0964519227988623,0.0464632927531219,0.147119730654545,0.315816265150004,-0.133214189255831
26,305,14.8358321592605,0.767756711116787,0.973051232392522,-0.530799870295461,-0.0996367736634129,0.0435130742777064,0.146443440719975,0.167764886029667,-0.17511939395524
27,306,14.8298213137647,0.766630972598338,0.973504322932644,-0.542196513239268,-0.102347851579289,0.0380498541281138,0.322046788931779,0.112738831124884,-0.301175777011034
28,307,14.8235752818181,0.765569928651942,0.973887362289972,-0.556542202574207,-0.103446932415775,0.0311676431346471,0.338605628390606,0.0599109098339205,-0.432551563335095
29,308,14.8171865452987,0.764690816744246,0.974211652655128,-0.57069713632218,-0.0981489888124036,0.0242668839593566,0.51003664268313,0.158934090004395,-0.452360711625944
30,309,14.8110583754021,0.764377636152325,0.974505910701851,-0.575664050021933,-0.0834734347164366,0.01535214864993,0.658052530644164,0.0516688590129358,-0.684348785750167
31,310,14.8055203441351,0.764820474511563,0.974810337275573,-0.566992486441786,-0.057254002152586,0.00802026249410001,0.677217892092829,0.128627324170747,-0.714417146873197
32,311,14.8004561508003,0.765745281295527,0.975137146045065,-0.553752356068183,-0.028419732225786,0.000205932475679881,0.735576953175968,0.0841328261887025,-0.839814110692249
33,312,14.7956260635426,0.766841898310085,0.975466531276577,-0.540862586315066,-0.000844100931807339,-0.00546448434935588,0.616474813667922,0.155700352841111,-0.748712965001626
34,313,14.7908820173503,0.767895114157304,0.975781663766359,-0.529079560232739,0.0222749939682359,-0.0092963423687235,0.536019626574824,0.359001882958034,-0.61007894583974
35,314,14.7861037028773,0.768887312491151,0.976061797791875,-0.520763769074446,0.041931042980067,-0.0119628251738342,0.588428413769309,0.472468976526514,-0.459930417844405
36,315,14.7813570360551,0.769676434689107,0.976318164612361,-0.510855784137879,0.0544282145033775,-0.0113643928133691,0.530256461201469,0.348378002108032,-0.192524879596294
37,316,14.776616063414,0.770352408439594,0.976566171879662,-0.500022369763243,0.0655560580106058,-0.00670466438846563,0.219880165552475,0.31148591334916,0.187267930131714
38,317,14.7718271723973,0.770844219252917,0.97688186333812,-0.490245382664699,0.0704662171909266,-0.00084691830159377,-0.0374718718609713,0.296567118217725,0.321285353694972
39,318,14.7669980030941,0.771282252136325,0.9770927929331,-0.485292334286838,0.0682120454613918,0.00382562091594483,-0.133032461374318,0.125461641093816,0.259547628042346
40,319,14.7620714084647,0.771578034393374,0.977269293942047,-0.484893915587437,0.0627147099952309,0.0057640813998844,-0.0293710488247868,0.234082793860503,0.150825445091365
41,320,14.7570257713432,0.771755734341456,0.977382172077117,-0.489282984377415,0.0545831748536759,0.00386778239500272,-0.0413563275037846,-0.0286119447341206,-0.0389362538865387
42,321,14.7518645272283,0.771828782307846,0.977414143591168,-0.49429665602084,0.0472793391676327,-0.00109354201471216,0.0767913716415543,-0.0726491229702768,-0.263765786809374
43,322,14.7466149565274,0.771830607986231,0.977364729616118,-0.498477840343102,0.0426484133392535,-0.00650001487018461,0.0282252987139635,-0.0129755950718591,-0.355817896954807
44,323,14.7412800448684,0.77178692001502,0.977235305519141,-0.503031450012553,0.04002081937609,-0.012580694600996,0.104807089703654,0.175595597847854,-0.419972167799723
45,324,14.735906729581,0.771743204849892,0.977035340892611,-0.504241784489795,0.0393931529456272,-0.0188150055142491,0.209881735092194,0.331330886613484,-0.505301709333973
46,325,14.7305355553796,0.771734863472479,0.976767886723852,-0.505798352806987,0.0401090836205123,-0.0249678074456527,0.114878202728525,0.304963097874577,-0.530935858087476
47,326,14.725181934579,0.771789176170871,0.976440786036835,-0.505530609500728,0.0425643029642978,-0.0311311271926851,0.0797369996006857,0.420061794812196,-0.577037074041118
48,327,14.7198325297185,0.771956750458354,0.976058904276571,-0.506423873106304,0.0479452025575328,-0.0378268725446805,0.0320642767913815,0.556502767647478,-0.627631583523267
49,328,14.7145007167127,0.772269546977671,0.975629833546924,-0.506822592811677,0.0560329124442265,-0.0442873041168192,0.03110097342057,0.639744754894476,-0.64901697627731
50,329,14.709196167992,0.772703626167277,0.975164479934441,-0.506296861173901,0.065270054769748,-0.0504939458059478,-0.000570546525444185,0.676887724843107,-0.69429137865359
51,330,14.703938969029,0.773267110078968,0.974671245276978,-0.503755725868256,0.0764083260487614,-0.0549565181487842,-0.122901277948816,0.637547365143534,-0.663025249733641
52,331,14.6987319684882,0.77393806407686,0.974146717711512,-0.502525309729982,0.0868774001225693,-0.0597130295300935,-0.24510629421767,0.4907830790444,-0.697836834292317
53,332,14.6935307410295,0.774702728280386,0.97358371180412,-0.501822078403572,0.0974125380629653,-0.0662581033109395,-0.221014168236511,0.384760916344815,-0.889064208751066
54,333,14.6883365080698,0.775560612006561,0.97296267539795,-0.503804260871415,0.108732393376365,-0.0742879426843509,-0.31620411457236,0.467861705638236,-1.01608435750282
55,334,14.6831358301177,0.776465471753689,0.972288819642445,-0.505034492616345,0.115500304610518,-0.0799721271943159,-0.421049286601606,0.446092678145149,-0.863413913612133
56,335,14.6778986327377,0.77744230025221,0.971569205151815,-0.507360205359739,0.119151185167857,-0.0864053720247351,-0.50367957503223,0.366567330853503,-0.911467129134106
57,336,14.6726784249196,0.778374607957518,0.970811182872693,-0.507525388679957,0.121759372277146,-0.0926820654652119,-0.380961947603258,0.471058937550841,-0.914685863565889
58,337,14.6674807490874,0.779311485107826,0.970019793035212,-0.506370828262919,0.123215654659853,-0.097260866757779,-0.363710431503118,0.461334439038854,-0.783547889994271
59,338,14.6623102447026,0.78032252660619,0.969196694700409,-0.509634813501216,0.125354904911499,-0.102622284985078,-0.684972174387749,0.342653933705211,-0.833541913893976
60,339,14.6571461895868,0.781411186457416,0.96834305170232,-0.514026897784021,0.130728026274477,-0.108080617775639,-0.694263607084135,0.435058142481877,-0.891666924728863
61,340,14.6519923005299,0.782610514716028,0.967451780432351,-0.517852038846686,0.136300641418083,-0.113606843629472,-0.782973243785014,0.498636195482653,-0.916050580997031
62,341,14.6468518755903,0.783902325713359,0.966522333170841,-0.521304285698918,0.142258794541461,-0.117764347064809,-0.858250073501373,0.596611320588747,-0.812373291195761
63,342,14.6417076079696,0.785245882869295,0.965548413960889,-0.523843589693717,0.147180743858633,-0.121368338610175,-0.831596580500585,0.512408651509293,-0.764954391567449
64,343,14.6365978994175,0.786626400618882,0.964534488550209,-0.522425706971618,0.15238604553735,-0.12348035297833,-0.752783840806644,0.649970126733515,-0.576990262905903
65,344,14.6315586169004,0.788072999616729,0.963491868454396,-0.51692012142102,0.160254853692671,-0.123325260810405,-0.792098978337811,0.762102139284723,-0.394775691400778
66,345,14.6265512239142,0.789529138663359,0.962416637137825,-0.514591061741006,0.164320470944833,-0.123172268037868,-0.875569643198735,0.519083306756054,-0.387229703779568
67,346,14.6215314455829,0.790955212888789,0.961370933558122,-0.513384793556537,0.164795250017834,-0.121797445358784,-0.865791698063943,0.342510639186615,-0.311588003710321
68,347,14.6164546906213,0.79234275424406,0.960360885776275,-0.513111563076177,0.162371006933554,-0.120265450151705,-0.60478084646571,0.175385728320972,-0.166973842263214
69,348,14.6113574608904,0.793727492178991,0.959374617797249,-0.510046549186209,0.16116286803779,-0.11586996656628,-0.311992725688471,0.157007317268171,0.180137763181497
70,349,14.606241963805,0.795132211721162,0.958429314856511,-0.509247922355616,0.159308090421924,-0.111198116752526,-0.27132022777399,-0.0258435539042926,0.271231410674133
71,350,14.6011263816132,0.796592513137164,0.957554463037345,-0.508699057865701,0.160825603476663,-0.100497856997453,-0.2124537000441,0.260470387792781,0.818272906002533
72,351,14.5960439892786,0.798116967339439,0.956791424494497,-0.509094245617342,0.165875313808265,-0.0839037766483372,-0.326667409784519,0.580612864534614,1.37491626771005
73,352,14.591053038941,0.799670090605743,0.956235732413021,-0.507044376302135,0.168417483371227,-0.0613380404194276,-0.427012880010963,0.53360089368391,1.86988555152508
74,353,14.5861680259552,0.801251911519062,0.955931705595392,-0.502468765752073,0.164829863791545,-0.0352682081906109,-0.708333583116703,0.304674798030142,2.18296913659663
75,354,14.5813764864016,0.802853639556647,0.955753078510843,-0.494337106123879,0.153040483330737,-0.0160373607705445,-0.225559828654893,-0.161017796778169,1.73832831226932
76,355,14.5766193943328,0.804385125037887,0.955736623064949,-0.48497077230049,0.142257713718256,-0.00783159577669972,1.03255671031245,-0.268612385333109,1.11455613006642
77,356,14.5719159055792,0.805948695653624,0.955671293242621,-0.477447821428972,0.146309033591876,-0.00134476992501933,1.52197736928205,0.240868191188159,1.06615519831262
78,357,14.5671512099863,0.807603036022165,0.955718298281211,-0.473309561444829,0.154936615441762,0.00134486589607967,1.63859822317597,0.377261057784197,0.666769606126343
79,358,14.5623468628135,0.809391773836754,0.955803910030218,-0.474985499282471,0.164272118555076,0.0054072561176135,1.13169191548249,0.285673098340333,0.716997466168892
80,359,14.5574407346333,0.811300022662335,0.955974407182727,-0.478599442359084,0.172845821124078,0.0141967149825216,0.588324209336757,0.315873100663314,0.943717990098355
81,360,14.5524835187538,0.813306442693207,0.956348598743299,-0.481540933295958,0.181247980016341,0.0296088567524641,-0.028604486569621,0.119747148518873,1.28494734327141
82,361,14.5473791587621,0.815400648530771,0.957000498523568,-0.487587368520375,0.189613791558159,0.045514169054959,-0.163753169545393,0.0484496963054453,1.33189101781019
83,362,14.542064958744,0.817579373112497,0.957792109745871,-0.499899169478118,0.200114310372618,0.0577249992107471,0.181646249735159,0.0491177619947117,1.17547093687258
84,363,14.5362805798832,0.819894784136113,0.958796257224962,-0.519579061435901,0.210456988216617,0.0687573877908864,0.287844038006412,-0.145461374583748,0.962439496890209
85,364,14.5310467036543,0.822885760778179,0.959781060051557,-0.525571874740823,0.22707236020774,0.0769047822648726,0.154345924912029,-0.224210408801311,0.736419046189055
86,365,14.5248964911457,0.825291174884709,0.960761206132152,-0.533185016983033,0.235717524593454,0.0835966098041202,0.0437439349084913,0.111368504687442,0.558366142419892
87,366,14.519117459077,0.828226753815927,0.961712470175132,-0.533135095696694,0.242713420539011,0.0869381872202855,-0.0315331118711867,0.226531038933819,0.282472684277604
88,367,14.5133058552801,0.830888623688536,0.961735679020934,-0.535541916689284,0.248132698938463,0.0818707103853989,0.187540715561489,0.215918782466718,-0.0455586822928506
89,368,14.5076980283667,0.833603486050427,0.961990017322749,-0.536844109680015,0.250778291996614,0.0758768551811688,0.123956233076567,0.0373058860091287,-0.273247025476743
90,369,14.5022986584628,0.836267241633537,0.962336192617734,-0.532134167176596,0.25125647366725,0.0696941879017086,0.200377623303792,-0.0172004353926461,-0.410616562282212
91,370,14.4972869053311,0.838924475813244,0.962683233776297,-0.521749903764738,0.250512641559847,0.0622350441169817,0.352242110988673,-0.0380366185786193,-0.531405479515443
92,371,14.4926333769502,0.841407783425012,0.962987815343666,-0.506234463676182,0.245945360209243,0.0543604538612992,0.417650323327593,0.00183310780665249,-0.583350134469483
93,372,14.4882795626802,0.843669304346851,0.963251885545969,-0.486655528350288,0.240996402463821,0.047510710665457,0.526189934884504,-0.00818778512438289,-0.528287495682791
94,373,14.4840254435967,0.845578166026511,0.963499793240211,-0.470150878817857,0.229437372696916,0.0413136446954968,0.535870931268948,0.0115366240313745,-0.46679543247331
95,374,14.4797798903169,0.847186353932034,0.963933623708832,-0.454478312868046,0.216128239935349,0.0391903797537136,0.600027491665797,0.162261165062324,-0.315981578253073
96,375,14.4755483814743,0.848477540735989,0.964431941852578,-0.444538568354325,0.199797731035752,0.0385832767096782,0.443861649066556,0.05654529623812,-0.18753038026853
97,376,14.471346324881,0.849584219926712,0.965014187826433,-0.435991932042555,0.183383715990486,0.0417612789200368,0.419452969618616,-0.0881279648354938,0.0837380155424281
98,377,14.4671905115087,0.850540927075212,0.965663298297592,-0.428715273540708,0.167224494447276,0.0455262058343091,0.388425656564568,-0.174978702735692,0.131412513521966
99,378,14.4630799207888,0.851447488200529,0.966363301119313,-0.422161243586948,0.153907864013168,0.0505471723857252,0.280895102838814,-0.32555459997267,0.247632026577064
100,379,14.4589898838426,0.852397705463125,0.967084458755474,-0.416411633877179,0.143050458675347,0.0545129090719087,0.192456578159368,-0.44068699188195,0.190886840154384
101,380,14.4549316755704,0.853398592169546,0.967802270060408,-0.412620686570885,0.136033377068226,0.0567071799979858,0.120396513858101,-0.419902034182191,0.0943734058782242
102,381,14.4508880747532,0.854473490250069,0.968510319641409,-0.411267715804775,0.132168188606307,0.0555462452022811,0.276190720300238,-0.439658471483957,-0.125571481735796
103,382,14.4468173823826,0.855652301430169,0.969169353832579,-0.411342256789426,0.127948167669762,0.0527120556178775,0.342257788127816,-0.49219697924175,-0.239311186466739
104,383,14.44256983937,0.856892707106214,0.969782287862468,-0.415606159419907,0.126396480723664,0.0492214222700026,0.344762014740504,-0.387110992904893,-0.281194746235284
105,384,14.4382941033143,0.858196885411545,0.970351837448295,-0.41910147814434,0.126089393127866,0.045743265936743,0.197339819044407,-0.318733960972781,-0.307815057343944
106,385,14.4339607193183,0.859554367822451,0.970877748668952,-0.420829053908532,0.126307207850616,0.0421959461770348,0.171813910517796,-0.30914086595987,-0.315130143653384
107,386,14.4295890746044,0.861035666159092,0.97136724677269,-0.423475851011293,0.127674913498075,0.03938685037571,0.0998575266720317,-0.318191089415404,-0.248846435643237
108,387,14.4251484989111,0.862580673555462,0.971828939996917,-0.426859472523968,0.129473289399448,0.0367715040311521,0.0592496321708353,-0.290806123909678,-0.229362974295908
109,388,14.4206228548322,0.864130564816867,0.972267866834802,-0.431158028199384,0.130064692115742,0.0343421687122038,0.135406574976856,-0.285437351131587,-0.211340631225974
110,389,14.4160092375717,0.865681249446253,0.972685434837874,-0.437461275050982,0.128872683480556,0.0324957604471222,0.193283814121853,-0.446508686863877,-0.186676837873505
111,390,14.4113224040025,0.867160296785895,0.973080915671248,-0.444497671081834,0.125210847550489,0.0310038882310414,0.238792644522023,-0.388124661659246,-0.167674927222527
112,391,14.406606492757,0.868554617061067,0.973452966712661,-0.449869637950243,0.12044830636147,0.0288572743651083,0.227160690780681,-0.423506466313425,-0.232147003452634
113,392,14.4018862132659,0.869896116533428,0.973795515844215,-0.452685930705877,0.115279167732403,0.0264452632710896,0.289830761207481,-0.450382151128803,-0.269341596405478
114,393,14.3971987343584,0.871196430551092,0.974102764091154,-0.453355528576421,0.109997802031208,0.0238765917516471,0.228762052280493,-0.420756251646829,-0.301209809958731
115,394,14.3925349632447,0.872483244168459,0.974367816110429,-0.454066186042481,0.106106214241952,0.0201553127597365,0.203753000248639,-0.357184222718671,-0.396789342853731
116,395,14.3878705063733,0.873755878036665,0.97457583631216,-0.453701763802544,0.103603101697144,0.0162670954253248,0.177593237470573,-0.297242634602467,-0.434837359289224
117,396,14.3833145474687,0.875048640906109,0.974738085897318,-0.451872587539757,0.102192008148785,0.012416986679698,0.144054915380892,-0.218147872546167,-0.444012498400697
118,397,14.378838351384,0.876370872698933,0.974847365802528,-0.450526818278826,0.103325606419214,0.00838217450979538,0.0700215585754925,-0.1503667362635,-0.436178394015528
119,398,14.3743992111655,0.877689254027465,0.974912972496025,-0.449742323287459,0.10413149999145,0.00484715534203643,0.0258816638988278,-0.135593302696237,-0.384321051741261
120,399,14.3699803090234,0.878997105843746,0.974940708693624,-0.450050174111092,0.105746866119197,0.00148134146328753,0.0199931190531384,-0.056955675330353,-0.353010084462835
121,400,14.365565969612,0.880270869815075,0.974941499735686,-0.449952975221262,0.105820073137161,-0.00119297829883775,0.0201382934376601,-0.0420346667023501,-0.306797955808615
122,401,14.3611353020556,0.881523605332365,0.974919282167081,-0.451007412643675,0.105965474646563,-0.0037595626011695,-0.0455680893228712,-0.0674316638707878,-0.282873804659532
123,402,14.3566799556997,0.882738267914496,0.9748774795342,-0.452553446457333,0.105814282227981,-0.00597805465415762,-0.113406148607615,-0.0891242947054465,-0.252977363512442
124,403,14.3522258624542,0.883926700012289,0.974825447253507,-0.452520097393928,0.105935022776951,-0.00722373940415016,-0.228201692938154,-0.122940658967349,-0.183873462615229
125,404,14.3478000915174,0.885110471083785,0.974764987442224,-0.451209512297198,0.106262051563236,-0.00828608494247255,-0.250985352148322,-0.142169939414118,-0.183181481594336
126,405,14.3434062672699,0.886261124287686,0.974707209720058,-0.448637061118586,0.104807959712801,-0.00929745633611259,-0.3350782330913,-0.232608269629316,-0.208043443810497
127,406,14.3390575926048,0.887394389279013,0.974643544123097,-0.446630065044806,0.104209446685504,-0.0113147632866899,-0.268705377414935,-0.243344377798143,-0.2898053713506
128,407,14.3347373297893,0.888482328070656,0.974565662816887,-0.44400708490849,0.102127611601369,-0.013538473642027,-0.191723818541362,-0.281760630673319,-0.316242379719466
129,408,14.3304485948031,0.889529282400393,0.974473190886011,-0.440164374577856,0.0996362146848738,-0.0158840368057219,-0.209508923636502,-0.342630998311924,-0.347909574746748
130,409,14.3261979556413,0.890532301704938,0.974364648428626,-0.434951664891212,0.0962954037175289,-0.0178466901856837,-0.245051538994691,-0.31481032721306,-0.33499713145954
131,410,14.322017378245,0.891502575643219,0.974240190729061,-0.427464937351468,0.0919935492368846,-0.0195799946191075,-0.250933191773151,-0.362079549280996,-0.323636423319766
132,411,14.3179050175503,0.892461031360717,0.974095184710607,-0.420560887294319,0.0868309115637481,-0.0212709045706537,-0.260573546174982,-0.431080315975216,-0.296582222295364
133,412,14.3137978422094,0.893398012575382,0.973926296487796,-0.418331767007689,0.0818160795083729,-0.0230873521299642,-0.307176276860712,-0.373016232757005,-0.278529889978928
134,413,14.3096590512611,0.894333571448029,0.973726727616961,-0.418973482907865,0.076566471072238,-0.0245283558919744,-0.339070585315013,-0.378448406710764,-0.256566472073754
135,414,14.30542674901,0.895286981078724,0.973490159884984,-0.422813855362188,0.0731753232080826,-0.0261560185362495,-0.458134203221183,-0.390306040240836,-0.236715711291189
136,415,14.3010199852152,0.896246661577702,0.973204491025686,-0.430021119955447,0.0708752921957,-0.027114089727945,-0.538725862785211,-0.319788275642052,-0.147327279496647
137,416,14.2964528513859,0.897151073998777,0.972855544012135,-0.442429315600487,0.0690443400582192,-0.0294416855394715,-0.543774425433512,-0.161655430245718,-0.219782313072514
138,417,14.2917240000827,0.898072823584693,0.972468909470501,-0.456367070418879,0.0672706747180418,-0.0323112061416803,-0.476426145153384,-0.0882814353105322,-0.212303742923258
139,418,14.2868420453856,0.898934186781361,0.972022527776165,-0.469461834252679,0.0654243964669949,-0.0344717399531787,-0.728160294825414,-0.0336779445527505,-0.106496439447451
140,419,14.2818315581261,0.899757478772166,0.971522065211844,-0.481207365561431,0.0651958793471584,-0.0367097270186879,-0.772909955723651,-0.06125453716939,-0.0673715474855636
141,420,14.2767226826026,0.900529784288612,0.970973164356043,-0.491956618298364,0.0655767590225433,-0.0380182050160467,-0.855481534723078,-0.000416456957229937,0.06331600629844
142,421,14.2714847162352,0.901255962801573,0.970380768411904,-0.504585641478136,0.0672495572184083,-0.0380103953293412,-0.835302493658582,-0.00351640557151393,0.254836302884928
143,422,14.2660963089383,0.901925487671669,0.969766994667074,-0.51939789167014,0.0679823958590961,-0.0355487277510877,-0.926246045201059,0.0275048269011277,0.454448634554176
144,423,14.2605797129551,0.902531705323303,0.96915417665351,-0.533444905952705,0.0685121256584033,-0.0313304660007482,-0.894216137026544,0.010306632601282,0.68348001007845
145,424,14.2549408762799,0.903078240038911,0.96851817578385,-0.547890421432925,0.0678026694293849,-0.0241655216420124,-0.974636146454301,-0.0636955081602408,1.00598806650361
146,425,14.2491318146756,0.903560050958228,0.967994057983845,-0.564061731141987,0.0653768538311449,-0.0153677349396607,-0.957960125628848,-0.198457302169925,1.22475970905099
147,426,14.2431034392581,0.904017571294999,0.967502179567731,-0.584241956758527,0.063698616710468,-0.00483995715038324,-0.985644324488742,-0.194999057723612,1.4551842253202
148,427,14.2369413974286,0.904468292924186,0.967034240089425,-0.601224828451043,0.0640630634293119,0.00657685514972084,-0.860699784008753,0.0114867413717924,1.56794627172023
149,428,14.2306752344543,0.90492140320979,0.966631229723063,-0.611185216570216,0.0638784699442571,0.0171042788494594,-0.785654925563266,0.0816367328993672,1.5685625318731
150,429,14.2244243948685,0.905287994209683,0.966475183239032,-0.617107844800652,0.0616179547365464,0.0291515109013846,-0.68936524413736,-0.0163506347983144,1.48368181962159
151,430,14.2178726202835,0.905912237771705,0.966297329621721,-0.630454799032896,0.06287563383435,0.0397629745778395,-0.75358838990758,-0.0144060000221324,1.44885478380189
152,431,14.211477185008,0.906228002312231,0.966226775880012,-0.645289174372426,0.0621711791367627,0.0493150352547535,-0.755638748201846,0.0949339860344161,1.35067177674084
153,432,14.2047794496814,0.906626592542227,0.966250961163244,-0.660542827386614,0.0628532887620576,0.0579905657808408,-0.791789498172505,0.240024311570012,1.24175155608849
154,433,14.198136487269,0.906959706272755,0.966275468530159,-0.670196195894426,0.0620697635572212,0.063565093844596,-0.830849381823727,0.329523140671613,1.00829981379941
155,434,14.1915434623683,0.907326425288159,0.966281238935922,-0.672294677863414,0.0598362390627993,0.0661893030199531,-0.767782175276239,0.366913063926461,0.723061725589256
156,435,14.1850490848871,0.907702371013348,0.96642399359543,-0.669816632899983,0.0548032906758809,0.0666683046168199,-0.662511048731305,0.240472557153604,0.425151266814987
157,436,14.1786327877307,0.908024684445642,0.966560890915296,-0.667946294371897,0.0481247205366524,0.0650865167429154,-0.538465881155777,0.0838234080144575,0.23137655126181
158,437,14.1722470988482,0.908225716512233,0.966659958992469,-0.667036278573858,0.039354851493935,0.0621808917701377,-0.444610677873212,0.0484299903092772,0.0724697962201491
159,438,14.1658435495223,0.908273312126977,0.966712053305639,-0.664846124552794,0.0301056099446335,0.0595559515916489,-0.419317079205078,0.175652671816854,0.082735391499915
160,439,14.15954482449,0.908187610581229,0.966724091472314,-0.657965452438393,0.0222058616445672,0.0567459192209827,-0.369552430353177,0.36662027702125,0.070519151913189
161,440,14.1532949310714,0.908000358296249,0.966709721996108,-0.652080053420912,0.0151461451342635,0.0541662177324092,-0.189928826330992,0.377828418220224,0.0920841840813506
162,441,14.1470300630604,0.907706357453559,0.966679421509058,-0.651232872952742,0.00848849786485048,0.0514904762893207,-0.0112454801690043,0.367523805381172,0.0842656366584641
163,442,14.1407116289611,0.907284508021747,0.966648898637458,-0.650308195742627,0.000488488477671604,0.0492754254361675,-0.044610045022951,0.591398726920449,0.0832649481944787
164,443,14.1343202705251,0.90674370371871,0.966621891695159,-0.648246826314529,-0.00872573989372723,0.0471873411374827,-0.039838462508112,0.493652104481088,0.0367446137449135
165,444,14.1278075457713,0.906171748400254,0.966733102480294,-0.649141328081472,-0.0158479920614393,0.0448705158368841,0.0508715041710802,0.431914918659905,-0.0753995561185212
166,445,14.1211954345735,0.905711229001127,0.967086580691133,-0.650043682247305,-0.0186329061013815,0.0424238784206254,0.221117369187541,0.664801406976494,-0.159790834227658
167,446,14.114579960583,0.905878156157785,0.967624011640262,-0.649565805547345,-0.00850068046179612,0.0437282148948315,0.00616131642599432,0.861012202105768,-0.123361695936901
168,447,14.1080156606464,0.906951055078917,0.968411707983437,-0.649688711584295,0.017557754546971,0.0471252042769825,0.052965153587385,0.557281632230896,-0.256831084797444
169,448,14.1015069942922,0.908667017278493,0.96941472723359,-0.652359433100491,0.0519012874237436,0.0503818310250345,-0.0345451007210492,0.587769141436824,-0.450650915754028
170,449,14.0950258025144,0.910597349851287,0.970537497270792,-0.653742488599331,0.0842330535813666,0.0530657820304586,0.133936858089661,0.593855228294832,-0.524219652309283
171,450,14.0885246429203,0.912506704888167,0.971671050170468,-0.65855330509543,0.111404945167392,0.052331239933713,0.376360455634969,0.579749627183987,-0.692379628461277
172,451,14.0820016177442,0.914336919087222,0.972736936964186,-0.663093408223694,0.134453127813441,0.0500354510971154,0.626302085815341,0.598767127205171,-0.713692794129793
173,452,14.075497414584,0.916056827437676,0.973703163586779,-0.661707854018582,0.152377257443076,0.0482106099980559,0.637404478104292,0.571468268290111,-0.594146105257224
174,453,14.0689712513979,0.917637097401434,0.97455335270936,-0.6615462701574,0.165596986681529,0.0444992022026464,0.750178438863631,0.652723043491333,-0.642361171757074
175,454,14.0624113359236,0.919099582376499,0.975282105293756,-0.661324103395091,0.174579722271184,0.0399992083113292,0.788894680497801,0.648626182182837,-0.62137061768921
176,455,14.0558018699133,0.920454779530404,0.975892854028359,-0.661962376830781,0.180784060861259,0.0346806399438504,0.681070809791851,0.614954223136966,-0.627399361727105
177,456,14.049261378956,0.921781569746167,0.976409548067179,-0.660526877144948,0.183227456831382,0.030727914250164,0.467807737000648,0.430208534203971,-0.516061189847072
178,457,14.0428433303795,0.923120671377632,0.976826320537779,-0.649879991884543,0.18804939955917,0.0265667925581809,0.716475418840676,0.694627206901137,-0.476069153651102
179,458,14.0365554459768,0.92450918013238,0.977179479376297,-0.64313791401697,0.192175870686929,0.0248603537194024,0.291995350961171,0.477999349567499,-0.116124897774345
180,459,14.0303292985598,0.925919608270942,0.977453917444699,-0.63828029361015,0.194321660937282,0.0244392477584735,0.247828727840636,0.515971652473484,0.122740096553851
181,460,14.0241842120763,0.927384782322245,0.977683670820405,-0.627119804562011,0.196123140258061,0.0243948715741224,0.53017577319561,0.404072349949454,0.16021390609356
182,461,14.0181654653692,0.928840375408582,0.97789078025331,-0.612806269928561,0.194540297669277,0.0287972495284722,0.272134643540822,0.42794364383852,0.460305072903641
183,462,14.0121967456972,0.930257118065261,0.978085504334977,-0.600489360446577,0.190929736061681,0.0332754600947078,0.233031557285498,0.295117777955717,0.499814103173552
184,463,14.0062219102616,0.931601277290006,0.978245293415564,-0.593897720156403,0.184054593741031,0.0331223410631229,0.263894814573581,0.147403935034089,0.234459272195567
185,464,14.0002227561874,0.932903863229309,0.978339524042575,-0.589952824876125,0.17661189171838,0.0283775229904949,0.34615243057251,0.0892332814421743,-0.0643926615706307
186,465,13.9942280240648,0.9342084210969,0.978347244594539,-0.58556667472183,0.169702253346476,0.020894988123049,0.523739275911425,-0.05705799584617,-0.336580006645064
187,466,13.9882963742295,0.935498720318302,0.978278106607797,-0.577526485697781,0.162199067900951,0.0141027606717707,0.674398521565463,-0.121053606049299,-0.419378981406259
188,467,13.9824171949224,0.936817091931257,0.97813911423347,-0.569504438696343,0.158276154586508,0.00712152944781041,0.738688348161572,-0.108047560205443,-0.450034418295379
189,468,13.9765865290348,0.93816438559199,0.977933278938904,-0.561741939172158,0.156195482775911,-0.000115345268279157,0.776975019671851,-0.0728865416437961,-0.463290458746353
190,469,13.9708228172648,0.939550469403058,0.977670866934001,-0.553915392391006,0.153043948353342,-0.00669872009982963,0.58030491102146,0.0247828765332018,-0.436191331176334
191,470,13.9651050189968,0.941018702642154,0.977362116445057,-0.548046777082505,0.15189747687733,-0.0137360822630223,0.620630232791864,0.0259793669218072,-0.485703650095827
192,471,13.9594453459249,0.942539764882677,0.977014948219566,-0.540349174807473,0.150165111342545,-0.0200745272558579,0.764545204242343,-0.0232437862659437,-0.413813897648088
193,472,13.9538215345277,0.944124813240375,0.976627996798901,-0.535977647254141,0.149761474558765,-0.0271807793742579,0.602977241180812,-0.121656037610674,-0.461211428019556
194,473,13.9482691043888,0.945808220181632,0.976221394088539,-0.529273503407164,0.152762354771674,-0.0326964710062011,0.522109807131038,-0.207909995509548,-0.375350331612837
195,474,13.9427381479412,0.947558786281558,0.975794762890574,-0.524819274313639,0.159901613768526,-0.0395675911566723,0.694101421060325,-0.08173606207546,-0.602145535829851
196,475,13.9372343924199,0.949387413668718,0.975353144056489,-0.520141066541768,0.169122741683397,-0.0431235883376104,0.641943606894759,0.127626168451172,-0.403033512176539
197,476,13.9316373370541,0.951250967803773,0.974904307965757,-0.519892635909915,0.17807306277909,-0.0459425593680633,0.577789920848669,0.0968402606979651,-0.329381621854709
198,477,13.9260022069716,0.95315881347681,0.974449971933197,-0.521460673292018,0.185253774514281,-0.0481810652802238,0.504172538459246,0.196872822355027,-0.273176152430542
199,478,13.9202690430108,0.95509380437726,0.973979715531931,-0.52821340891707,0.191331836634669,-0.051892363324421,0.430517978355679,0.281548671459571,-0.367185930677775
200,479,13.9144783385534,0.957028510019634,0.97348256789677,-0.537468311275338,0.19528730927654,-0.0560001491475591,0.110757315637629,0.246238090906911,-0.43040648840089
201,480,13.9086590586648,0.958918276506106,0.972954839652861,-0.54445205916143,0.197368878419797,-0.0605235382868149,0.128662252265196,0.345034812908653,-0.486909641922021
202,481,13.9028956575888,0.960784948258171,0.972504295376441,-0.547336172241118,0.198770137415113,-0.0645690008907613,0.0610466211106393,0.328816741426517,-0.552500124460165
203,482,13.8972009209915,0.96264083637696,0.972136730347698,-0.548408703251811,0.199741722409436,-0.0675438026649551,0.145097277647126,0.237580674258706,-0.571565594840601
204,483,13.8916195740624,0.964470423574419,0.971726306767435,-0.548097788728185,0.200237991067888,-0.0709180502327536,-0.0916432949702053,0.321032159548197,-0.678099016274145
205,484,13.8862170052728,0.96626563615114,0.971309758850828,-0.540604111286422,0.201123236682211,-0.0730378101607011,-0.00303413108338773,0.386608847093436,-0.610866841592939
206,485,13.8810249841495,0.968035004458681,0.970896480598476,-0.53138688601477,0.202549853250833,-0.0748272352935205,-0.151410091092234,0.62184065108107,-0.672112264699807
207,486,13.8760751143691,0.969863879879381,0.970478721008488,-0.517437036000468,0.206588335887716,-0.076969574603345,-0.104142439811408,0.799495601269508,-0.733696234300185
208,487,13.871405574603,0.971787274246631,0.970045544334034,-0.499292472091397,0.211756586219473,-0.0787559998849566,-0.182899261072623,0.808671962289276,-0.720329564319201
209,488,13.8669632849848,0.973798669481459,0.96958182703186,-0.479305977008313,0.218495030255191,-0.0815955376875491,-0.152396799658023,0.956232859701158,-0.805178122625774
210,489,13.8626696517911,0.975904629009674,0.96907591977992,-0.460035843027837,0.227122568700983,-0.082664514363785,-0.0382553767202222,1.00879606693894,-0.613786609210026
211,490,13.8584210450518,0.978140762022978,0.968529038047146,-0.448113329004098,0.234802229520938,-0.0864871890944418,-0.248510204030364,0.741663353493149,-0.767176302486109
212,491,13.8541496497474,0.980432404755244,0.967923492359581,-0.439118014498027,0.239727285754833,-0.0886276296024487,-0.220132145361935,0.715780454981236,-0.566556460686314
213,492,13.8498456793768,0.98279527757366,0.96728383371111,-0.430322195512546,0.245146998161077,-0.0892542099500246,-0.0805679305459128,0.713574112556902,-0.337842125432816
214,493,13.8455607606774,0.985200008336097,0.966627547391123,-0.421773935348625,0.248376943494713,-0.0871331657620557,-0.283360760503701,0.407975021150177,-0.148470685863873
215,494,13.8412474899816,0.987613349841292,0.965948044298699,-0.420283597829851,0.24811796940903,-0.0850948999554462,-0.269227183714979,0.178745387146437,-0.0733784506489999
216,495,13.8368849974181,0.990071571439191,0.965242071791758,-0.422285721886994,0.248344113176042,-0.0844907437715476,0.0136782198929292,0.0748814517366162,-0.0761155933928747
217,496,13.8324557001672,0.992570107976272,0.964516279719954,-0.424943425473898,0.249794527251408,-0.0840386379837127,0.320957304356112,0.028428541034757,0.000889732583697368
218,497,13.8279659342707,0.995165117084987,0.963813851249689,-0.428999962361418,0.255169368134109,-0.0762024012649549,0.578835503625913,0.168456589412552,0.799864738975367
219,498,13.8233696005962,0.997840486828018,0.963185325407687,-0.433989588745963,0.25852410553942,-0.0642343728172472,0.700350097553985,-0.200927035090602,1.19553166148134
220,499,13.8188217385874,1.00050695167,0.962682062802268,-0.435338693935284,0.258070467710684,-0.0433446318513297,0.24561382680805,-0.457832267550391,2.04438610268419
221,500,13.8144162105243,1.00311314397709,0.962364109936221,-0.428797281160246,0.247861722662041,-0.017213724290505,-0.452971913604566,-0.523100964766407,2.54432419536642
222,501,13.8100954190205,1.00562250117355,0.962201852257307,-0.422454282127661,0.236356275743736,-0.000174723236331569,0.339620222907457,-0.343978943345201,1.91066874902398
223,502,13.8055924193893,1.00813788418766,0.962165692207156,-0.421631619339217,0.228714532076865,0.00656948991521636,0.751570306389687,-0.402689216994279,1.05763113876353
224,503,13.8012612606691,1.01049381221729,0.962229079388528,-0.431135796695287,0.229627908645782,0.0128700989255115,0.923831553290567,-0.0574467334163735,0.696793857591018
225,504,13.7965847726523,1.0128319795021,0.962593714387666,-0.455918657771905,0.235596528459244,0.0211306067314701,0.989070778400083,0.445450596544377,0.492608921841308
226,505,13.7916772797408,1.01530741858281,0.962939717866905,-0.47772004517134,0.241456923765369,0.027573188546076,0.716532542966169,0.220343347228808,0.413998623964216
227,506,13.7867659698056,1.01791318804724,0.963360266294349,-0.487368177375519,0.246583662259137,0.0337279811176818,0.391581275412072,0.0467362991932615,0.38366223856692
228,507,13.7815887181642,1.02132536986584,0.963944782795432,-0.487134538730587,0.262788473295564,0.0416327973845837,0.307227606507966,-0.0041168365159384,0.469842987337942
229,508,13.7765629580683,1.02416902226487,0.964712090741021,-0.47917061765574,0.273968428050781,0.0511455095971566,0.175309935716753,-0.0241125099254086,0.59015352614679
230,509,13.7714139727032,1.02745373869331,0.965566804404906,-0.472199810098384,0.287553367179225,0.0600169260656271,0.134181437690891,0.0152308913690052,0.562125792542177
231,510,13.7662383717129,1.03065648503116,0.966468116797168,-0.468807413268558,0.296260186721696,0.0671516472592963,0.0322007492455771,-0.0271398543127298,0.45476912196049
232,511,13.7610785528271,1.03392721537703,0.96736584367235,-0.467277808376331,0.30239499357421,0.0711972285458271,0.188782450229241,-0.0335440495008197,0.224443368689739
233,512,13.7561949190334,1.03708794091539,0.966827446658681,-0.463243565841492,0.304037605520506,0.0628597078356022,0.289515760775672,-0.0477229685891751,0.0492837681207511
234,513,13.7513808967227,1.04035210062328,0.966547455505994,-0.458614705542366,0.304931899545017,0.0547957833704971,0.449740156316677,-0.221338141779294,-0.0448998902894097
235,514,13.7466438457128,1.04363653427166,0.966397510253932,-0.454222870659062,0.304901925650425,0.0484194738540509,0.472308349808659,-0.340896727500605,-0.0578561740575359
236,515,13.7420412735233,1.04689514319998,0.966364369269273,-0.447370963601787,0.303129002185418,0.0449031502885803,0.406958608525076,-0.463310329320242,0.013504642117503
237,516,13.7375890473829,1.04993397838512,0.966426768198259,-0.439690044117851,0.29864040566465,0.0417801700647593,0.54241118776025,-0.427520487014637,-0.0636875432183299
238,517,13.733248222873,1.05280697206871,0.966470083270663,-0.4329725347035,0.291440767385986,0.0386838913886414,0.577963754625612,-0.483896594403631,-0.0138935392884563
239,518,13.7289886709953,1.05541541687859,0.966584772020937,-0.429757495431551,0.280516915914523,0.0358298099606528,0.510663477779014,-0.565109602595456,-0.0139117644434887
240,519,13.7248580756765,1.05776865943004,0.966774450589613,-0.423950452805144,0.268361217915749,0.034891148043034,0.457866312235607,-0.472657279254243,0.0656697804138238
241,520,13.7207881346366,1.05990294933262,0.967037860897823,-0.422993156154504,0.255520341483415,0.0344258692099625,0.227431328025593,-0.403253445515484,0.0637998657488617
242,521,13.7167052336839,1.0619028932228,0.967364872645897,-0.4243959568104,0.244118184448029,0.0355659734731883,0.25946735772259,-0.346046872048111,0.144119139316314
243,522,13.7125428478033,1.06384467900199,0.967743235479003,-0.428027579118338,0.235381168638362,0.0367648813875005,0.140317159060789,-0.333414075867055,0.124005700639427
244,523,13.7082820189656,1.06577687970006,0.968154193310405,-0.431622364697146,0.229392439035027,0.037975726785993,0.0375729215957149,-0.29913352547828,0.107977857246579
245,524,13.7039779604217,1.06775959200814,0.968591593792042,-0.433190033624096,0.224404683032062,0.0400462364102255,-0.120509857119921,-0.467749067553355,0.162728334769208
246,525,13.6995837559791,1.06977266371709,0.969053043605917,-0.435407750634406,0.223077766701343,0.0414136682437296,-0.252231540535161,-0.397819139784648,0.125992436142596
247,526,13.6951093625812,1.07183334896728,0.969531950829137,-0.437185087776457,0.222337329872656,0.0425714092301099,-0.172898814271216,-0.328565439376127,0.0839094725032036
248,527,13.6905447435416,1.07394305283726,0.970021676460075,-0.441105489994139,0.220873477489751,0.0432495369715462,-0.233938322139184,-0.307637192853138,0.0591575844153361
249,528,13.6858548733472,1.07608264446061,0.970509881457662,-0.44706539866846,0.219088103673067,0.0426722108890867,-0.220722450735442,-0.226142704555009,-0.0323874851652472
250,529,13.6810717965432,1.07826470331165,0.970986753886824,-0.452588076141178,0.216793316799584,0.0418330370852449,-0.249327319769452,-0.17162396281427,-0.0537477502208615
251,530,13.6762139281696,1.08044064778791,0.97144176361869,-0.458517032274884,0.213764541713746,0.0395899298217477,-0.139327507155477,-0.168257811459708,-0.18161004846275
252,531,13.671292287265,1.08259422378177,0.971864525741036,-0.465881349765289,0.209090755133103,0.0370193249373588,-0.0846205109584524,-0.145468426023486,-0.227521433592123
253,532,13.6663407645656,1.0846816960643,0.972246112149229,-0.473896608905585,0.203242869231781,0.0333299655834591,-0.0105995017500495,-0.122304658230262,-0.338236892990815
254,533,13.6613828473422,1.08671784252123,0.972578880437303,-0.481688724575521,0.198663878506458,0.0294841440062884,0.0324343146180011,-0.204006150509033,-0.358345554666885
255,534,13.6564525595573,1.08867859601311,0.972866557893514,-0.48601551542712,0.19268651455854,0.0266900256255873,-0.0517237036861185,-0.179955177723295,-0.279565755837021
256,535,13.6515475012376,1.09056077558348,0.973113086508391,-0.48877703408455,0.186179506255716,0.0241595806102559,-0.0420754723209261,-0.217520208341004,-0.241637646145017
257,536,13.6466725712172,1.09237437364176,0.973312917793787,-0.489175721671719,0.181116224980528,0.021328102269096,0.0078540064247299,-0.291580828561226,-0.260488000819005
258,537,13.6418507585676,1.09414626220894,0.973470824109382,-0.488676255540442,0.174733748953095,0.0182018334566514,-0.0158244120256498,-0.209039841058547,-0.28688286518524
259,538,13.6370635424736,1.09583756272089,0.973580360290036,-0.489062043479399,0.167882395054029,0.0147201531510575,0.0465829587366199,-0.245174581738903,-0.308273479472404
260,539,13.6322926992615,1.09744309556262,0.97364085906469,-0.490053954564991,0.161574461133527,0.011293739177888,-0.0133444612313661,-0.181805846355848,-0.292551137956488
261,540,13.6275059938222,1.09896921919819,0.973653243543992,-0.49294822830421,0.155439903029506,0.00767734973646811,-0.0991864425335831,-0.110037699855609,-0.301844147383225
262,541,13.6227017918562,1.10045619900823,0.973613257109938,-0.496368772344104,0.151363399298937,0.00318300997632996,-0.0724350555797473,-0.11379920502326,-0.378155804696684
263,542,13.6179027793677,1.1019101695752,0.973520615940834,-0.497858903160771,0.146650353712833,-0.00114202483585649,-0.202753005111288,-0.13886300252756,-0.386045869110071
264,543,13.6131181602749,1.10332226515254,0.973378434020951,-0.49726899717905,0.141462802961337,-0.00612214577253491,-0.256428504200677,-0.237637198082997,-0.440589934193474
265,544,13.6083548860189,1.10471541906618,0.97318274965843,-0.496477437575906,0.137234484293106,-0.0117067701649229,-0.241272994509316,-0.216457091104155,-0.490445022839857
266,545,13.6036116476485,1.10609290143539,0.973084426625154,-0.495011370559427,0.133108606199684,-0.0163186476138034,-0.259155737808663,-0.238362358194772,-0.533441385759359
267,546,13.598856538921,1.10748494135762,0.973045715247019,-0.495976304679677,0.131105101264029,-0.0204022141691161,-0.26736716415415,-0.293925979807347,-0.541538537210229
268,547,13.5940927074853,1.10888405275393,0.973027977236005,-0.495939411372828,0.128971820470858,-0.0238207731452723,-0.346770804140699,-0.265573891539241,-0.542483116597651
269,548,13.5893384267683,1.11028625475126,0.973033290766589,-0.495698928954489,0.127559710871438,-0.0260220264663375,-0.438863365812212,-0.35393737406563,-0.471925862461314
270,549,13.5845702827378,1.11165871208847,0.973060415332299,-0.495476413058289,0.125220414090565,-0.0273325630961232,-0.525396702814046,-0.351340899716969,-0.436796147595006
271,550,13.5797886739422,1.1129915176264,0.973104924215559,-0.495928328332394,0.121826525524896,-0.0281573212582978,-0.505687701966615,-0.399023473172209,-0.429480849420387
272,551,13.5749821877813,1.11427825339578,0.973161202808026,-0.495491702429387,0.117895556248698,-0.028223098811124,-0.566363018930884,-0.409669080537036,-0.381702387482007
273,552,13.5701617001013,1.11551424738404,0.973218783004129,-0.494510032697485,0.11193248528503,-0.0275316674701565,-0.592017705259747,-0.467062272746869,-0.304171528670387
274,553,13.5653132651521,1.11670777451359,0.973263926199794,-0.496229416254624,0.106724398742995,-0.0265613815072038,-0.674577219902859,-0.441101124178235,-0.247905472537345
275,554,13.5604109211031,1.11787466646114,0.973286498409856,-0.499714567368925,0.102385768863511,-0.0262670079816113,-0.713020969703117,-0.550130432574536,-0.238291480379356
276,555,13.5554402112479,1.11902027778813,0.97327463222605,-0.504590969604454,0.0982871283861355,-0.0269650706381689,-0.696385778297852,-0.592306733126453,-0.295149236290068
277,556,13.5504074191208,1.12015366565627,0.973217524721056,-0.510078438424851,0.0951198749019922,-0.028265671140086,-0.78021705584228,-0.654413824536714,-0.360889784663033
278,557,13.5452849093186,1.12130979548649,0.973109723377798,-0.517776846985879,0.0908556363474391,-0.0313523526471841,-0.677702768467215,-0.659751760540938,-0.500643928033694
279,558,13.5400184985277,1.1225581284468,0.973078746309533,-0.525210239540833,0.0853612867593512,-0.0341256990314382,-0.673213603612288,-0.392658290797431,-0.478239899812294
280,559,13.5347406245826,1.12369277628262,0.97283147065753,-0.532464994383399,0.084515220936539,-0.0374525914770545,-0.78745651389896,-0.47076272896149,-0.470404001470064
281,560,13.5293571848603,1.12483126370413,0.972525281601355,-0.542858834323036,0.0860625270935172,-0.0376259979626552,-0.926806251235455,-0.0647698210233251,-0.375143772693023
282,561,13.5238933859417,1.12605721977334,0.97215167461554,-0.549395958534761,0.0916093189092429,-0.0396446730756567,-0.80670177102052,-0.0483043295163063,-0.282766340273999
283,562,13.5182982844553,1.12735585138595,0.971708705624978,-0.55791328787622,0.100542404446615,-0.0405569954495037,-0.875353659252398,0.0292656064456401,-0.120336952296879
284,563,13.512597998063,1.12869551077825,0.971202012563523,-0.566793600746325,0.108370863698913,-0.0411561380193735,-0.938053791895715,0.106184652869191,0.0200675675150008
285,564,13.5067884621194,1.13003267124977,0.970640949002432,-0.576695156743962,0.112675479309208,-0.0411089262617556,-0.975320487734399,0.0821464822650759,0.16159782746821
286,565,13.5008201893791,1.13140215720809,0.970035565176801,-0.588785723962125,0.116825422190366,-0.0402201241272258,-0.967407395400758,-0.102910934754751,0.328088038451563
287,566,13.4947246202364,1.13266898853707,0.969426750954651,-0.603336474844368,0.118614384500606,-0.0363803786964495,-1.01661708368723,-0.0989009306659469,0.663492494384626
288,567,13.4886268218661,1.13391914177672,0.968835034567491,-0.616315410666538,0.118550754296989,-0.0310041065959476,-0.999846975106818,-0.371698860630228,0.848353114673012
289,568,13.4823887984481,1.13508689015421,0.968226094443524,-0.626900572783709,0.118633460619037,-0.0238013393665369,-0.959867166796479,-0.582589116627603,1.10881565588073
290,569,13.4761590905511,1.1361642196329,0.967636020077797,-0.63430188333536,0.118449407656436,-0.0169447507162169,-1.05332051718273,-0.383867925230683,1.11356987479796
291,570,13.4699482751659,1.13715272243464,0.966981711939354,-0.635276449155699,0.11616103364528,-0.0117249605764037,-0.82084193124739,-0.376954262945231,1.01894676462467
292,571,13.4638116344864,1.13799069497171,0.966584008852608,-0.632385826754289,0.10873604777933,-0.00356190745523121,-0.649184526528994,-0.532245839880946,0.996702209751108
293,572,13.4567340618173,1.13883978390199,0.966131620164868,-0.644236988434552,0.101164796877707,0.00449711841957571,-0.55922813445954,-0.605206395584128,1.08887115310479
294,573,13.4504199765764,1.13943544752621,0.965819317195009,-0.650877158994173,0.0927129924963016,0.014284784391513,-0.590532799311555,-0.469502216304729,1.19894279705867
295,574,13.443668073155,1.13996430321612,0.965566515993274,-0.662223443909867,0.0865295399630355,0.0256525397336408,-0.777764488785253,-0.213772862326565,1.32901031932669
296,575,13.4369600102967,1.14039437275952,0.965405913159346,-0.672047246733153,0.0787445174463938,0.0370611310511276,-0.809229927419905,-0.0340119300304322,1.40210583094761
297,576,13.4302530057987,1.14081509464022,0.965369206123495,-0.679763461460818,0.0709417014126137,0.0474433853384706,-0.553300970985335,-0.0242996625793696,1.29327880813075
298,577,13.4235449920356,1.14140884279014,0.965368522462372,-0.685846396354054,0.0661547526973156,0.0574366876837577,-0.434641290075798,-0.0536399626978792,1.29586452533996
299,578,13.4169552309136,1.14198058183449,0.965441190997793,-0.689908844477454,0.0634868009813396,0.0677031712875706,-0.373883448777657,-0.165377244731891,1.32572067428732
300,579,13.4100980004899,1.14248698048011,0.965562622020849,-0.698136161231787,0.059385527153748,0.076276482976863,-0.399384700328046,-0.0352662568051533,1.24717288479521
301,580,13.4032230203338,1.14294766106854,0.965733750904805,-0.70393951718003,0.0552985036582671,0.0834698054103011,-0.399585986863022,0.0875670346912189,1.13333325673322
302,581,13.3962975246402,1.14333242522654,0.96592724803986,-0.70846576282136,0.0536986932785946,0.0898407477356916,-0.12776169676876,0.159885437114344,1.03867912644614
303,582,13.3892567139026,1.14374262681502,0.966161175343991,-0.71299891028644,0.0504880556797468,0.0956601621698348,-0.21335962007663,0.432357688630516,1.01009653637961
304,583,13.3821879125652,1.14399619991734,0.966392828659282,-0.715206473311144,0.042597823209652,0.10148430848571,-0.276006490934372,0.0537052155799134,1.10224901622856
305,584,13.3751464362228,1.14393370603497,0.966619598625267,-0.719131743825674,0.0308208323429698,0.106598405352933,-0.633952345224829,0.0664560244921553,1.07192656788644
306,585,13.3680967878759,1.14354188713921,0.966608979460569,-0.721470804352174,0.0154432930527838,0.106355265318237,-0.443145280636694,0.117586014497384,0.901559189625775
307,586,13.3610221851963,1.14287281923758,0.966550127083348,-0.721048319851699,-0.00177227387311609,0.102621646214923,-0.0336513370030451,0.226787097205614,0.661221851801981
308,587,13.3539518587601,1.14199817657444,0.966647595941146,-0.714790869324054,-0.0170771992309237,0.0974628681643488,0.137248995237012,0.389038945565607,0.428390207585155
309,588,13.34685083819,1.1410269850344,0.966931916348536,-0.709524314953766,-0.0290085957020964,0.0889792812294002,0.321906301864582,0.469536197255952,-0.0438752951049557
310,589,13.3395985185385,1.14009281827426,0.967295090420386,-0.713621149024953,-0.0348651592370388,0.0772537277166951,0.411522860571979,0.367212176430092,-0.499294503933357
311,590,13.3321467597344,1.13933902209786,0.967730330694253,-0.719740672133925,-0.0354970297317647,0.0667271911426387,0.27046128036716,0.347158740427014,-0.627253793125338
312,591,13.3244432615341,1.13897876937551,0.968251991172389,-0.727272816820244,-0.0268194724166454,0.0565431130594117,0.287278698667129,0.326881240386346,-0.786350532575029
313,592,13.3164534163684,1.13955332328875,0.968864728505764,-0.739106175156273,-0.00223640625787515,0.0471307747701719,0.388997098900669,0.52885777453064,-0.890437560378678
314,593,13.3082984115096,1.14136094277252,0.969544527489353,-0.753626657386959,0.0389333504950572,0.0387529669277467,0.699908558580426,0.588209920158326,-0.945849274427831
315,594,13.3001905192913,1.1439671748923,0.970260648649113,-0.766633742527307,0.0838299334972495,0.0307544135238718,0.825654090318024,0.575733943688408,-0.99284172542751
316,595,13.2922649946051,1.14681415065382,0.970978579128767,-0.771279764536635,0.124096817189093,0.0245376030469563,0.953216159513466,0.403076024786041,-0.907899978688408
317,596,13.2845029765469,1.1495004368229,0.971671779629319,-0.769778180146625,0.153255477288518,0.0204543714953451,0.861383087054587,0.29128886348912,-0.774217969825544
318,597,13.2768889568592,1.15195278795938,0.972336553213263,-0.765490863150862,0.17019856714013,0.0182642463180386,0.790170264557529,0.162520148420473,-0.600754170286323
319,598,13.2693265561549,1.15417544612696,0.972959865714743,-0.763034546404496,0.180113179947343,0.0152877655074762,0.570550290373993,-0.0219325688641417,-0.623786310582726
320,599,13.2618126663791,1.15618110743565,0.973540126830758,-0.759835229086664,0.1871963609926,0.0152465189765469,0.516784566869617,0.243478313092658,-0.309895826243684
321,600,13.2543409933818,1.15799102407482,0.974067931028803,-0.756475927255663,0.189774112565008,0.01324251182692,0.534120392269745,0.285986393123733,-0.432283724558464
322,601,13.2469283803709,1.15962416300005,0.974542286537529,-0.75244606290549,0.187324348437013,0.0143025175575494,0.368603514920137,0.322969406766097,-0.0824807815597555
323,602,13.2396211493781,1.16109724917055,0.974986375845393,-0.745170074612846,0.18178380779586,0.0187567031363514,-0.0403692967466872,0.295965861692476,0.256415704556739
324,603,13.2324115313537,1.16240527661587,0.975407726294164,-0.736085293022468,0.174080684714707,0.0226940056791111,-0.0807176456288644,0.329856975279077,0.226818329328
325,604,13.2252899320032,1.16356375657859,0.975789726723191,-0.726174544006297,0.16551029928934,0.0241508429424237,-0.0659497404369677,0.274726469361091,0.0313261870122846
326,605,13.2182295219176,1.16463452499306,0.976102403734748,-0.716390095566614,0.159267696952606,0.0220205986812605,0.00574726001820361,0.254255442720493,-0.222024311662591
327,606,13.2112244500229,1.16565217026686,0.97631885329991,-0.706336132709389,0.154102812655733,0.0160917117714648,0.198589817984406,0.180968405784515,-0.500565246668577
328,607,13.2042595794205,1.16662725317315,0.976415326127683,-0.698953857855665,0.150157963166729,0.0064962757711349,0.402494129204689,0.188008746526151,-0.771492245041141
329,608,13.197367105634,1.16759999986387,0.976389371050697,-0.689155546633397,0.14625068125307,-0.00436563539745326,0.581782055824556,0.203864352717181,-0.921174893041521
330,609,13.1905807842897,1.16859013518904,0.976254563440866,-0.674816943601567,0.142153787290148,-0.0138527803798683,0.648296300734281,0.0524535854993705,-0.891280420537138
331,610,13.1838623548469,1.1695862578545,0.976018073889041,-0.665105168019295,0.13797952634028,-0.0236877463253998,0.541384848388037,0.0149577402824166,-0.917777203604891
332,611,13.1771883880462,1.17057144191707,0.97569592636258,-0.654910590609055,0.134395934881697,-0.0322472446014891,0.594875404873051,0.155838088245564,-0.853811774513505
333,612,13.1705684886654,1.17161364212824,0.975410625090979,-0.646996303358803,0.13387535140846,-0.0395524958975771,0.569980701126044,0.185662642010548,-0.80031887292665
334,613,13.1639806610818,1.1727593075415,0.975147766825976,-0.642572865326809,0.135630682838847,-0.0465012032516091,0.501427258118023,0.204109387612923,-0.805989850597481
335,614,13.1573800436209,1.174017526845,0.97485047489479,-0.640243307074463,0.138937884837847,-0.0529894626275028,0.404638246262539,0.227348046122154,-0.782405361875297
336,615,13.1507852463896,1.17535043946305,0.974524057899108,-0.637260721762359,0.145294818414676,-0.0583258948268914,0.445565296082535,0.342761620221284,-0.702034156203553
337,616,13.1441853506002,1.1767427544592,0.974178911398325,-0.635129265868627,0.153504594412085,-0.0618091591903086,0.231090785613207,0.382358370097386,-0.589278043573874
338,617,13.1376445974211,1.17819311602482,0.973813748612064,-0.633117658911497,0.16201764861948,-0.0642740009018975,0.029200740747554,0.44268363515051,-0.545778764974863
339,618,13.1311170266164,1.17969224611152,0.973424094596736,-0.632547859795123,0.169178634510939,-0.0680046669179857,0.00927145629574122,0.28022766473195,-0.688634364136438
340,619,13.124655589375,1.18117534208314,0.97299975479892,-0.629621639947416,0.173471779256049,-0.0721152697443148,0.0153752436781912,0.264285574109815,-0.75767101520246
341,620,13.118229540355,1.18263632778081,0.972530841332902,-0.628842797990705,0.176559370813484,-0.0779673867225499,0.125725358011525,0.321486721860163,-0.895105961896554
342,621,13.1118953536678,1.1840771024581,0.972045687708785,-0.625858947377661,0.178896684538711,-0.082032361804671,0.176524251970496,0.436741683830424,-0.787189510296037
343,622,13.1055794218844,1.1855378925024,0.971503383889778,-0.626054156460918,0.179359368285146,-0.0888128490447603,0.0865327331638895,0.298294173957657,-0.987443320189697
344,623,13.0992886987297,1.18697523749616,0.970908175002331,-0.626910551587929,0.180275055785052,-0.0941004737031092,-0.0818652573917736,0.345190246538579,-0.904017134389553
345,624,13.0930556908972,1.18839914661762,0.970282341754424,-0.625809253313371,0.180646411806817,-0.0982367223183703,-0.142116407646802,0.419430869195717,-0.826291652331316
346,625,13.0869070476979,1.18986320911351,0.969631499835718,-0.623816353186106,0.182675226240055,-0.1030052668413,-0.236717246148388,0.543039757783427,-0.876683272455266
347,626,13.0808840567307,1.19139301857302,0.968957886055062,-0.61809238894111,0.185807273386135,-0.105448158559426,-0.390032264469763,0.736823305753481,-0.73785311441982
348,627,13.0749810902686,1.19304785362867,0.968268744729767,-0.612095733068931,0.189961942629558,-0.106992344730775,-0.558922466708077,0.695271569754799,-0.687755256771351
349,628,13.0692216988638,1.19480533420477,0.967566962149005,-0.603771708080893,0.192679620792038,-0.107514612707306,-0.713605019130627,0.633132019835602,-0.624795918039345
350,629,13.0635277389417,1.19665442237507,0.966831220011304,-0.597451552688233,0.195648995549462,-0.109470025051046,-0.478113089271923,0.467837339817566,-0.680864554022279
351,630,13.0578984560846,1.19854901499667,0.966063361677847,-0.589060747477712,0.198260176978017,-0.110330798476326,-0.526121369894661,0.482083517718354,-0.552099101469654
352,631,13.052287314125,1.20046382268467,0.965259819683379,-0.582201493976292,0.199797717593089,-0.110608838964113,-0.694552880128222,0.312993078185878,-0.499426619219317
353,632,13.0466236976196,1.20238537401945,0.96440954774176,-0.578484371015543,0.201335597867842,-0.1104905952211,-0.635690281831591,0.268636324941698,-0.393255176631753
354,633,13.0409164015132,1.20434602854787,0.963513124857446,-0.574103888780876,0.203997686344986,-0.109921125980352,-0.483254133960258,0.293038017189107,-0.203492991262141
355,634,13.0352133158226,1.2064044610017,0.962582905262865,-0.568722116141884,0.209069041011334,-0.108711240918045,-0.370224044345886,0.153342858480297,-0.0671394626982108
356,635,13.0294970481761,1.20855350836799,0.961623740821493,-0.566300463586528,0.214825809805359,-0.107614615461793,-0.0336341055071906,0.150161013588323,0.0172835436209029
357,636,13.0237522749751,1.21079826138275,0.960670525486377,-0.565621017796175,0.223094512330582,-0.102294870779519,0.250816024651323,0.21748369375815,0.478571834686252
358,637,13.0180075046882,1.21320386915873,0.959820162207648,-0.562131392985508,0.236754684777101,-0.0817295149007435,0.76205780509773,0.858015454530969,1.96124591615495
359,638,13.0122772646016,1.21573996253138,0.959198799137864,-0.556660157405394,0.245632061080895,-0.0513332797478894,0.952125912843859,0.4266519793186,2.87522909927745
360,639,13.0066608389507,1.21827145810517,0.958884141447469,-0.548437825501872,0.242002244106989,-0.00733975930376937,0.00539434894175261,-0.0673014032643316,4.17560210380534
361,640,13.0011551912541,1.22062741037369,0.958935112030904,-0.542881584116909,0.224618221328242,0.0389844293684785,-0.769383257479105,-0.312194207637183,4.44328527934551
362,641,12.9956605699514,1.22276966748699,0.959301693543333,-0.537222497380147,0.202280967637644,0.0738825621817995,0.178908050881851,-0.422193205351133,3.73060715324599
363,642,12.9901112524603,1.22474353292038,0.959906054879094,-0.537977405757432,0.189405394641889,0.0988588489316085,0.712159613286332,-0.21254820845809,2.9780063298517
364,643,12.9843322802557,1.22665141020484,0.960636343250764,-0.554070707623188,0.182640821665563,0.104595487056299,1.08619375540168,-0.546692759779865,1.23830739764326
365,644,12.9782828517099,1.22852774513631,0.961439627272259,-0.575878901715237,0.185870154875518,0.102072223169778,1.67950374402079,0.0522529151059569,0.403397327718507
366,645,12.971932113418,1.23040597204271,0.962354742048407,-0.593403914344056,0.190866310320046,0.0992601500864256,1.45590857066066,0.365074620828106,0.141052599386871
367,646,12.9654850335764,1.2323269114404,0.963309419609678,-0.597048893620491,0.1995919474767,0.0988752570954629,0.824097802488781,0.283951118796632,0.13499129928876
368,647,12.9590018565828,1.23453754631871,0.964239543496252,-0.586788081382019,0.213973716769051,0.0978643738151301,0.437781964572713,0.0638236493147245,0.0637664133871818
369,648,12.952626576827,1.23683869311298,0.965406306497687,-0.576008788475335,0.229803054159649,0.0999872327413582,0.269871159677559,0.169438234609719,-0.00975769187314781
370,649,12.9462169347966,1.23948471384585,0.966548682141654,-0.574833732881836,0.244751438672436,0.101145864968438,0.238341025617944,0.055952014503515,-0.0932533079712193
371,650,12.9398715367707,1.24229009927103,0.967593986875593,-0.580327409763329,0.258553382298131,0.0984619923453051,0.132951645447783,-0.0939275381819004,-0.228802968428894
372,651,12.9336349175806,1.2460859233873,0.96858131159781,-0.585085900327923,0.274572045131195,0.0931782167140577,0.257398381487239,-0.175326173761589,-0.523376951102531
373,652,12.9275068429536,1.24890367618285,0.96794568425867,-0.58572326554002,0.279848905187304,0.0796781890644346,0.552767511212674,-0.134723251510373,-0.645236254155823
374,653,12.9216294108569,1.25206260037623,0.968680802741106,-0.58039838898265,0.284565942054471,0.0714958901266108,0.721995451114749,-0.210888659118087,-0.668845281898263
375,654,12.9158784391325,1.25512945989435,0.968568795810435,-0.570059883464147,0.283128293481055,0.0611833718159316,0.972864112449114,-0.358423129107556,-0.710861257223206
376,655,12.9101865101155,1.25801213438654,0.96863139011046,-0.558510837649023,0.276130736150545,0.0529254521929644,1.07568473606636,-0.564411048012934,-0.648581226131151
377,656,12.9043852563194,1.26072113277736,0.968826174023519,-0.550258049637357,0.266348015488261,0.0470478677980131,1.1009565672856,-0.650158122315559,-0.539555418584261
378,657,12.8985551162323,1.26328179229013,0.969121968562084,-0.546034680168885,0.254209524807081,0.0427347111687703,1.05555290914159,-0.78033946221089,-0.463441965426126
379,658,12.8928816931128,1.26561053557968,0.969511634220161,-0.541340639065029,0.239310188789874,0.0410927880525066,0.91078478226268,-0.881017894312298,-0.267052108600303
380,659,12.8874045244224,1.26767466947401,0.969962196211097,-0.537277396137134,0.224787890137225,0.0383832233067807,0.955259074100603,-0.818588032965049,-0.360256884327762
381,660,12.8820598445482,1.26946543903485,0.970431031610388,-0.533650300330261,0.208159858789997,0.0372564682958004,0.719077918383068,-0.781830225830746,-0.25633177971564
382,661,12.8767173108749,1.27103950053177,0.970908639387817,-0.532132307457603,0.192936933840152,0.0366398685169996,0.572152854594176,-0.843902484368992,-0.211793834777335
383,662,12.8713173050794,1.27248411960726,0.971385370745204,-0.53322685335422,0.179220482300131,0.0360511925832705,0.557691663038241,-0.814886596057178,-0.204767301110616
384,663,12.8659062756749,1.27387047349269,0.971849928487099,-0.533758975154196,0.168824193653287,0.0356854363180361,0.369297732311778,-0.807122539169948,-0.173112203487053
385,664,12.8605219471975,1.27524918079074,0.972296770772494,-0.533077243745604,0.161791940238994,0.0335503110015058,0.348653042353431,-0.758885837031094,-0.334656575119026
386,665,12.8552663013101,1.27660620908711,0.972719020137079,-0.52880108558177,0.15834008357655,0.0315164889325988,0.2909557707495,-0.565977296020259,-0.267530258308455
387,666,12.8501120669687,1.27794208392961,0.973129282491542,-0.522958287151576,0.153638471530532,0.0297918486604064,0.221747506847531,-0.574444853280779,-0.236705122933706
388,667,12.8449309354467,1.27939352644721,0.973526129282654,-0.515732755030119,0.152640534293737,0.027708988835077,0.310644518166187,-0.448988614802014,-0.278042801053774
389,668,12.8396682120694,1.28085543549559,0.97390731619606,-0.513571065453029,0.150907787519504,0.0244268979993312,0.210765106089009,-0.327942212972262,-0.37693393313712
390,669,12.8344670390482,1.28238294508001,0.974270800385131,-0.511131312559708,0.150343539218972,0.0214496420106393,0.0813855540334107,-0.309522070071596,-0.386241380810132
391,670,12.8292929038287,1.28390386719906,0.974626966280895,-0.508291906134108,0.148248491619277,0.019499693824343,0.0594861073713759,-0.339420184565244,-0.318555564542026
392,671,12.824174505749,1.28542276525192,0.974980653004003,-0.505352387157143,0.145908612639353,0.0190604347170214,0.129525263026874,-0.188372899203016,-0.204573552632709
393,672,12.8191049747253,1.28687342272874,0.975332973329792,-0.503097970030039,0.141717051377078,0.0194288176515768,0.0954409538536456,-0.0274217944988119,-0.124134638884523
394,673,12.8140822004899,1.28821613084597,0.975686477202314,-0.500824209884933,0.135858689043804,0.0206903244099032,0.116560166609254,0.0216356349873519,-0.0338362997391271
395,674,12.8091045535644,1.28945675711775,0.976039190891555,-0.498146700117648,0.129075191583445,0.0221520090045675,0.110757027514995,0.0200060054802665,0.00244670234360491
396,675,12.8041941807852,1.29060610930858,0.976382804268911,-0.495622087662287,0.120990997126342,0.0230669143339155,0.0819539675729869,-0.0204425120335917,-0.0327817476266166
397,676,12.7993014573969,1.29168261694289,0.976699297471034,-0.494623465232619,0.11342809512009,0.0227138863755661,0.11148158481494,-0.126811705295727,-0.111731559883653
398,677,12.7944155769463,1.29273539909654,0.976970307198367,-0.493744488532867,0.103461525139126,0.0219195773454361,0.122549492462091,-0.203239305457176,-0.160063396183885
399,678,12.7895900189427,1.29368728987026,0.977217136922551,-0.494203640090153,0.0956976696388125,0.0205162644953474,0.0810983932498554,-0.282074258513178,-0.178717700503247
400,679,12.7847936010981,1.29459985576901,0.977420116261746,-0.494157785112569,0.0894111061234584,0.0186026666291885,0.037309084366332,-0.253870175695236,-0.182255714653043
401,680,12.7800192346402,1.29551018862214,0.97757880520186,-0.494633440714122,0.0844261844380074,0.0165707407455294,-0.0134267608906125,-0.239367140599696,-0.175519791807987
402,681,12.7752919757901,1.29642297862282,0.977701035052756,-0.492961519344342,0.080491829963324,0.0150125195287482,-0.027087458545014,-0.278276257493034,-0.147549730530422
403,682,12.7706039872032,1.29734330283088,0.977788535421122,-0.489707534009108,0.0783066242300975,0.0133325395546989,-0.0606517418198452,-0.151363665472803,-0.158640386541559
404,683,12.7659428276568,1.29828256176509,0.977841801211672,-0.486274608193234,0.0773714210477579,0.0111190689996393,-0.0728238035438108,-0.169585598252115,-0.192511455674327
405,684,12.7613173044968,1.29922249507844,0.977859118806918,-0.481994344354707,0.0764520516931364,0.00833025892198911,-0.0911650553042381,-0.0909010712620468,-0.24000667252463
406,685,12.7567098363543,1.30016631018659,0.977839602732387,-0.478652491195892,0.0762483605649568,0.00514354295742947,-0.140823235159433,-0.175158552902304,-0.270903689653045
407,686,12.7521091924124,1.3010944241166,0.977792265013237,-0.475499453715525,0.0747570622582886,0.00125054762274784,-0.132789352458781,-0.199892983426585,-0.335842241723381
408,687,12.7475052621346,1.30202248808793,0.977714307235638,-0.472388171859659,0.0725267847335854,-0.00274667243474795,-0.122192512173778,-0.372238785254349,-0.35436168364281
409,688,12.7429035891861,1.30292501105237,0.977605125342793,-0.468221869815263,0.0690337693823373,-0.00645207757040089,-0.147439361623408,-0.44749924120484,-0.353473957246748
410,689,12.7382864567118,1.30379993638365,0.977462221148478,-0.464226439709152,0.0653809250400424,-0.0111402969142194,-0.143159151857289,-0.539668339251067,-0.450843358823382
411,690,12.7336230974014,1.30462262674462,0.977279770070828,-0.463738727435766,0.062199911714596,-0.0167478156810339,-0.184973735384448,-0.443546471112121,-0.526147166221715
412,691,12.7288967276951,1.30538705784221,0.977057213991744,-0.465021705250317,0.0585992309159679,-0.0216374389742388,-0.169972996994508,-0.313377013801362,-0.469342877425964
413,692,12.7241169941333,1.30611362119817,0.976789335641415,-0.46841294151208,0.0553390123050161,-0.0275936389605299,-0.228948491008179,-0.453522333777484,-0.551022964144498
414,693,12.7192657384805,1.30683276604985,0.976467420746951,-0.473768015959578,0.0539945295290777,-0.0346027823050505,-0.262592002256681,-0.546268602033295,-0.631354900492916
415,694,12.71435514151,1.30753115054684,0.976100940145933,-0.478738413452709,0.0518425130881547,-0.0400946285385514,-0.415105746429007,-0.499944134937094,-0.562006781513079
416,695,12.7093884106497,1.30822904760056,0.975705073065919,-0.484675629899886,0.0516558367373554,-0.0438726055246675,-0.575350566895043,-0.370723704558749,-0.501488081059469
417,696,12.7043651621523,1.30893995462035,0.975277533734277,-0.490156564581016,0.0528407575913532,-0.0474472034816966,-0.681091286011554,-0.26950639422256,-0.482486831916635
418,697,12.6993310303016,1.30969849586176,0.974818215845257,-0.495531187705199,0.0554721992808993,-0.0498517802485669,-0.743201797453664,0.050142787658953,-0.411354855372095
419,698,12.6942848675606,1.31050815429465,0.974330205409815,-0.50002140922261,0.0578213224294432,-0.0525247169856293,-0.696569533823323,-0.0126065466685154,-0.35671298594175
420,699,12.6891899691641,1.31134524683873,0.973812644975323,-0.504822379279808,0.0599372549926918,-0.0554611971752973,-0.71224944293378,0.0617301813154651,-0.359718378984183
421,700,12.6840750537369,1.31224895448934,0.973257237969914,-0.508950997353911,0.0651633354647921,-0.0557487173757131,-0.912717340418535,0.243888625660119,-0.192631301724193
422,701,12.6789395068983,1.31317241028557,0.972656342174795,-0.511388063183237,0.0662524264903147,-0.0582220504404684,-0.805965674864192,-0.0334260761324222,-0.27146840221263
423,702,12.6737631162695,1.31404677240607,0.972004983988751,-0.515352456724319,0.0638353796413906,-0.0611836376517226,-0.669306776038871,-0.200836197674324,-0.171311309852358
424,703,12.6685371216799,1.31483295048811,0.971313423187177,-0.520986391099264,0.0607085885223399,-0.0621237792727049,-0.773174940275145,-0.311228895487577,-0.0559192070988644
425,704,12.6632669930871,1.31553687709305,0.970587135002625,-0.528129783484186,0.0559888044248454,-0.0619595125966609,-0.817938681372506,-0.448030782058122,0.027134425757541
426,705,12.6579451857846,1.31613025090511,0.969836591570653,-0.533959606595075,0.0508149483950113,-0.0611446734917473,-0.668640804924117,-0.477068841799615,0.298526202440596
427,706,12.6525422298796,1.31663977433651,0.969088039626334,-0.542524632321877,0.0442793629072901,-0.0573740102524957,-0.677686894459542,-0.661411346866755,0.457812489599391
428,707,12.6470353228158,1.31706256056152,0.968354817779328,-0.550068638174699,0.0369167757298601,-0.0499651171562158,-0.467967333895652,-0.949755605641773,0.963809561285371
429,708,12.6414003219625,1.31738788899948,0.967658555192831,-0.560646263030766,0.0330869513020381,-0.0396904269200994,-0.548969136968273,-0.893257107810406,1.26644853904231
430,709,12.6356297881399,1.31764554613747,0.967012209492025,-0.569251130609671,0.0317907773487894,-0.0266045333387036,-0.611821534264441,-0.496479105044959,1.57896795989312
431,710,12.6297442556249,1.31780586277668,0.966666882377761,-0.576335697568384,0.0324811857098285,-0.00913318687877325,-0.65117415889229,-0.195193364049754,1.71170280765968
432,711,12.6236151160837,1.31804382854016,0.966239150841472,-0.588756842129281,0.0337457125089427,0.00649631715365238,-0.756501814853733,-0.0328235587196314,1.81160772719125
433,712,12.6172666989503,1.31829429780254,0.965874944245092,-0.606184938196311,0.0360650065325228,0.0212201974657999,-0.61122180221041,0.0701543993896731,1.78415479894231
434,713,12.6107080435147,1.31856678368438,0.965641955551652,-0.62544774692853,0.0377728560878237,0.0353551346646441,-0.513121028843731,0.022500445623968,1.81455637117343
435,714,12.60390188182,1.31881856615174,0.965397681896103,-0.646321852428655,0.0387362090196081,0.0464700775015316,-0.505160148693187,0.0858690098483517,1.67960581938211
436,715,12.597560832929,1.31871325770385,0.965271405268259,-0.65593939965673,0.0357992900374355,0.0579726690431395,-0.488971220621141,0.127061152701871,1.6429785199881
437,716,12.5906980596154,1.31888672389285,0.965219868828279,-0.668694548478256,0.0305693178154451,0.0663855518762454,-0.365702771422485,-0.000376021565627205,1.35864868950051
438,717,12.5839415101273,1.31889227788077,0.965193685936879,-0.684358599050965,0.021068267658354,0.0697771396216934,-0.109785596941584,-0.147703689849199,0.915201726497939
439,718,12.5771752407483,1.31889880610341,0.96517025349752,-0.685760531253799,0.0100920639582734,0.0727847824229187,0.0649881833543198,-0.105576372519575,0.823234443481541
440,719,12.5706588004037,1.3187831640996,0.965261177272244,-0.669901609326261,-0.00229318530369337,0.0789449635594029,0.16612872169333,-0.0633724743819754,1.03624035799149
441,720,12.5642198010619,1.31850277858596,0.965402532657792,-0.659569169030259,-0.0142783401497576,0.0841164399174025,0.154517428994983,-0.164423620655454,1.02147236718806
442,721,12.5577231873242,1.31796032282712,0.965562676019394,-0.663198128438819,-0.0275376040230169,0.0866582877952377,0.192278739377059,-0.100726872800979,0.82767198673636
443,722,12.5511971963318,1.31709344029694,0.965739590241751,-0.661626504151848,-0.0423429514432853,0.090762828163572,0.140103601422206,0.00493800712047344,0.92452493014817
444,723,12.5447745651496,1.31595806038447,0.965943896843039,-0.649173891500423,-0.056855709044906,0.0962459417398537,0.00677457681716518,0.148021154816354,1.03230560208918
445,724,12.5383893172346,1.31460676830737,0.966168427567132,-0.640328882364962,-0.0729167147529363,0.0989507031915108,0.0851600266870658,0.275917924160445,0.822499356218425
446,725,12.5319282274431,1.31312016272662,0.96657110621072,-0.641964281943387,-0.0878641996530463,0.0970738793040691,0.32509530036307,0.306381733001658,0.376574066152825
447,726,12.5254172622026,1.31157971294419,0.967093261905805,-0.641591401283312,-0.0990739601247035,0.0922928747209485,0.318489151781026,0.356990143936514,0.0151238868367806
448,727,12.5188729823764,1.31014396309504,0.967676831974307,-0.639226915060679,-0.104496757553303,0.0852534520975512,0.388857675715966,0.382499580311889,-0.263329971904065
449,728,12.5122215613974,1.30903674424517,0.968334959772407,-0.641829470586066,-0.100543910016325,0.076285479364132,0.550688338269732,0.467757067898407,-0.570990667840699
450,729,12.5053894994707,1.30885871009731,0.969093922290303,-0.650852327250583,-0.0788016964653032,0.0661488701238522,0.523865212901096,0.515411512859656,-0.890337004348284
451,730,12.4983821935442,1.30994565175917,0.969943645800275,-0.663777928898015,-0.0370699123215846,0.0565092922745826,0.616933954677512,0.466950223565122,-1.06713799331156
452,731,12.4913232318115,1.31188640836155,0.970829933088405,-0.675315047229008,0.0130139135623573,0.0479238247459612,0.68398905444873,0.581243518560795,-1.1120057628054
453,732,12.4842950819471,1.31409323059314,0.971697455786986,-0.684877144801678,0.0588574923744172,0.0392987261750784,0.789002004583631,0.628295055657857,-1.14802512905181
454,733,12.4773031725131,1.31619947333326,0.972501651996814,-0.692916270281194,0.0964351997040174,0.0314667449912116,0.971576453106415,0.696050437633046,-1.12831676982643
455,734,12.470370358939,1.31805482655834,0.973229171087493,-0.697230133491512,0.122903338607713,0.0254160600247668,0.89553542534324,0.696184927521032,-0.92563324681165
456,735,12.4635545549462,1.3196683450552,0.973902064024323,-0.693884703671362,0.139357379586896,0.0222406218600072,0.778845877138417,0.5112735265295,-0.677284907767463
457,736,12.456810189329,1.32105464754579,0.974532330951124,-0.690734490526586,0.147691965902951,0.0206119059869883,0.428997778950475,0.383362279851195,-0.506925478422195
458,737,12.450111798639,1.32234461668745,0.975127827512637,-0.690017551491913,0.151137044534123,0.0185811696241948,0.321841576405343,0.25605196378644,-0.485759897432921
459,738,12.4434678439722,1.32356444910979,0.975688817586742,-0.68625339694887,0.153965541725242,0.0201442623806329,0.302114061358654,0.569826345771646,-0.0892901427168031
460,739,12.4369024850613,1.32476050458562,0.976212154489247,-0.679211688263918,0.153545486592127,0.0201384005897265,0.512191508662885,0.344301109217989,-0.160970123203048
461,740,12.4304601938941,1.32593037905828,0.976693568366278,-0.670222438884912,0.151584953067201,0.0225494793003983,0.395439423615541,0.390369822312507,0.128372927469627
462,741,12.4241292332853,1.32709665502358,0.977150482461798,-0.660702963472987,0.149344967587225,0.0254664072322312,0.160596403810612,0.355517269541095,0.158726907553015
463,742,12.4178730881387,1.32821415934408,0.977578030961088,-0.648403925019837,0.145282506690429,0.0280984936055223,0.305776431475018,0.263720552684246,0.105386928443373
464,743,12.4116532317685,1.32924715376607,0.977953603093582,-0.637277591967002,0.141248165184024,0.0275853466991942,0.454174231185558,0.137725656775619,-0.125775373548545
465,744,12.4054622980549,1.33017646116716,0.978246962705058,-0.624847362011897,0.138792896462083,0.023833483991964,0.59269724004765,0.225601032686111,-0.326635112719266
466,745,12.3993138082232,1.33099308802297,0.978437325581982,-0.614050260804046,0.137308668301646,0.0177530535695555,0.599634532884066,0.237170785347451,-0.427440414653278
467,746,12.3931963653444,1.33173751898166,0.978517831040474,-0.604543878135582,0.136536950934823,0.00930257336618977,0.712694484532058,0.173356969090455,-0.589455720623822
468,747,12.3870777078002,1.33240924193216,0.97848909386126,-0.59737373794041,0.13359535620883,0.000451827429280716,0.760634589893719,0.202411529597869,-0.655064074830187
469,748,12.3809534688642,1.33305462188936,0.978365369783994,-0.590040045234434,0.131737667520088,-0.007420699800165,0.752885601718225,0.246473220263433,-0.638582445523253
470,749,12.3748198551798,1.33369851783354,0.978162052842942,-0.585635007170909,0.128276325049,-0.0143975232880975,0.556516025204805,0.232681749482656,-0.581331818648319
471,750,12.3686478555858,1.33439037065895,0.977891052540122,-0.584518632703835,0.126693124108576,-0.0213373053278674,0.575119320662327,0.351931190381484,-0.551717159040408
472,751,12.3624420321471,1.33520254855315,0.977558373664709,-0.588081575148357,0.124944244420604,-0.0270125111505905,0.166722906522032,0.296007509501272,-0.416901609967305
473,752,12.3562204878063,1.33617174858844,0.977187116505894,-0.588908729328911,0.125837725070554,-0.0332833971414537,0.208213749975467,0.324864085206409,-0.524694815773542
474,753,12.350066581376,1.33725835055077,0.976779876545071,-0.586487450978519,0.128298599741734,-0.0385388509963595,0.194318713045399,0.34671156372082,-0.477528345279481
475,754,12.3439420750433,1.33845093911762,0.976325981791183,-0.584213391605759,0.132958817303468,-0.04519372222129,0.154172645816911,0.349716555862763,-0.600253220125652
476,755,12.3378572880243,1.33974279372975,0.975821825903638,-0.581587023258109,0.140985767062273,-0.0512333167105902,0.138492511023439,0.495677172039146,-0.622316110243104
477,756,12.3318030169138,1.34114523504385,0.975273990486782,-0.579642478907483,0.148974493782311,-0.0563729526837604,0.031694903306767,0.443893284311576,-0.60722243477508
478,757,12.325833172321,1.34265254644965,0.974690604855633,-0.577001191467614,0.156646909654486,-0.0616629297167151,-0.0224133755549437,0.495528109112181,-0.667902992262852
479,758,12.3199185628517,1.34423047874976,0.974064824281899,-0.571916580097533,0.164595211106692,-0.0685436865715106,0.13288761119344,0.637600884554301,-0.855594881449566
480,759,12.3140758575083,1.3458565981398,0.973490268397907,-0.567383738713068,0.173077960342861,-0.0747948341791985,-0.02142878505754,0.661448892664502,-0.897566874988069
481,760,12.3082924229966,1.34753183908224,0.972917560869782,-0.562333087992959,0.180951463362719,-0.082463249604746,-0.178750021191779,0.476060106428415,-1.10739049565031
482,761,12.3025556468986,1.34923981003987,0.972287253487031,-0.557752688331062,0.188891152259386,-0.0904111436125074,-0.359125632518023,0.40125739869479,-1.20507009247625
483,762,12.296857006236,1.3509899435467,0.971594127652076,-0.553530570914447,0.196378035788554,-0.099626701588341,-0.449676928130536,0.460164809626592,-1.34349801113046
484,763,12.2911914801178,1.35282375553308,0.970832167114466,-0.551011638634962,0.205216451866116,-0.110326832036972,-0.427002564781379,0.710063371701303,-1.45567228067299
485,764,12.2854964709562,1.35478274924156,0.969988144495811,-0.549180515139943,0.21437161882407,-0.118727973891786,-0.145347623330377,0.88432133166385,-1.20395295481574
486,765,12.2798832285295,1.35690499695713,0.969104695353518,-0.546716523009481,0.225135758876434,-0.127725942561918,-0.319507037129614,0.8029387261007,-1.25480778483724
487,766,12.2743489539742,1.35919801701717,0.968177533773036,-0.541250250956095,0.238074561492311,-0.131262071034654,-0.23428992314526,0.978701758011582,-0.767801311829191
488,767,12.2688570127286,1.36163351390388,0.967244931460405,-0.539162840842615,0.248372630586569,-0.134484775423779,-0.301527557384596,0.731252002813028,-0.838364666140306
489,768,12.2633533701084,1.3641265988184,0.966292982375659,-0.540244691327122,0.256402235365232,-0.133395289054336,-0.266387728473379,0.859139059525182,-0.485089835098399
490,769,12.2578292296063,1.36664019239098,0.965359707584504,-0.540301112996956,0.26120625808667,-0.127650143017106,-0.145546199604709,0.895774542707822,0.00579480791411922
491,770,12.2523144740927,1.36914475242353,0.96449331586195,-0.538405204936203,0.261043144186386,-0.114978115023571,0.0795463055785002,0.685129937757705,0.740654076249771
492,771,12.2468644383442,1.37173869933623,0.963802764349822,-0.531629228528738,0.263792601890245,-0.0896790527540172,0.678761486235661,0.762266479586422,2.06481835930768
493,772,12.2415635268248,1.37444085756279,0.963365994063013,-0.519836910520649,0.258594788536368,-0.0596021332387512,0.641385864988195,-0.228460784308268,2.50369491845017
494,773,12.2365836320544,1.37713467582064,0.963187247621813,-0.50396169250378,0.243569239821918,-0.0188672264499831,-0.692107004823004,-0.790241307792142,3.41996073019733
495,774,12.2318476793919,1.37967925667637,0.963315181790924,-0.497202592004075,0.219996368567219,0.0256082083095427,-1.54021688494908,-0.868788304043516,3.94051383919964
496,775,12.2270842728533,1.38202611889858,0.963609094438943,-0.499184170531401,0.200818784234231,0.0438783360414335,0.793850799602507,-0.557931595332233,2.22203651018691
497,776,12.2222893638895,1.38424534969719,0.964010104311617,-0.49976040210835,0.191920032171571,0.0450680678643182,1.79826737543781,-0.687629863241208,0.843877174015669
498,777,12.2174543971548,1.38634222985785,0.964318985373871,-0.496936166051082,0.192983799483091,0.0289780799719922,2.2214632518204,-0.292554116810907,-0.85483552281383
499,778,12.2124822882936,1.38834365252088,0.964565278889763,-0.494537467807946,0.201304096441051,0.0166569508821965,2.22286111485586,0.72120404556364,-0.693604208050859
500,779,12.207421850403,1.39037931568136,0.964817090825057,-0.494801140169064,0.212628143046605,0.0133987076834094,1.28586265042091,1.08878465308291,-0.161846106766855
501,780,12.2023273635093,1.39255913926985,0.965165385005689,-0.492871291930955,0.225840697850513,0.0180476486502987,0.086794599523615,0.691947795078502,0.226132397324516
502,781,12.1973010804772,1.39489502821784,0.965712205315091,-0.48445119047424,0.239473486524779,0.028443943926465,-0.631184053534694,0.379535206541659,0.410856785055907
503,782,12.1922929522085,1.39741298313088,0.966524834443288,-0.472616298120075,0.256234237662814,0.0446044753646102,-0.82530824383571,0.565182961805629,0.775221378177768
504,783,12.1872795354694,1.40015341685854,0.967491943532799,-0.46559173932957,0.273462119260372,0.058769237257374,-0.678244671044045,0.652447751056003,0.715593495680964
505,784,12.18218939701,1.40313975073516,0.96855699470623,-0.464321922231037,0.287847180537525,0.0691996763406074,-0.507545441240621,0.415002283114275,0.49601131575828
506,785,12.1767739183673,1.40670535064181,0.969898857746287,-0.474611013642287,0.307629951638901,0.0783061437110275,-0.25690371108322,0.289974012679418,0.208626917312091
507,786,12.1726398251382,1.40994175170652,0.970938060563456,-0.467609967259837,0.313337371310532,0.078486569467974,0.212708471219715,-0.0174172291296057,-0.0924304028159089
508,787,12.1673273835502,1.41379946303262,0.96996676962413,-0.47109758566048,0.322097013990412,0.0659207256581004,0.398417806516109,0.0651179918208846,-0.25214194464399
509,788,12.1625995727938,1.41730440077012,0.969609387698533,-0.466021525750078,0.323866676709557,0.0560056633280359,0.804376612018382,0.0563643120534963,-0.385701948425143
510,789,12.1579603316982,1.42081330462153,0.969700774722743,-0.459959375339875,0.321913336660636,0.0508383548332806,0.790343836913121,-0.142729814630405,-0.34157312752299
511,790,12.1536449615617,1.42412264618532,0.96979283925278,-0.453404275983625,0.314945557140277,0.0462893579152155,0.585322819275963,-0.523965263990768,-0.276029732806894
512,791,12.149638780052,1.42712918034125,0.969618956377782,-0.444386267749597,0.30011286649032,0.0419214654381022,0.377296154999732,-0.813580665679241,-0.140992136638106
513,792,12.1457188020041,1.42969206764896,0.969455331298447,-0.435171617369101,0.281630230167539,0.0380067106823121,0.260693554475515,-0.717993175470205,-0.041069370314412
514,793,12.1418033291307,1.43185500462624,0.969318919619158,-0.426080692377577,0.261179769484751,0.0338013208172272,0.272045953910363,-0.465591496017147,-0.112205223961382
515,794,12.1378403537349,1.43367035973802,0.969212774819514,-0.41964642702907,0.24135014821281,0.0298808770707957,0.317435982032813,-0.255748470647026,-0.0789479114093292
516,795,12.133782023835,1.43525084993824,0.969133546727638,-0.416591863691073,0.223459386891493,0.0268541109875648,0.361184025902279,-0.256966315334747,-0.0180831666176529
517,796,12.1295766865973,1.43680069770796,0.969066488631481,-0.415493675161832,0.210505818123169,0.0243868311223581,0.312141729704559,-0.265973006751827,0.00515911196917566
518,797,12.1251300509396,1.43839982324078,0.969007968148928,-0.418665289672859,0.204567758080914,0.0219992422959572,0.308136909972018,-0.255371693573805,0.0290043429554032
519,798,12.1205557634652,1.44008256054697,0.968945693876672,-0.423527405331274,0.203210030798608,0.0193221734513877,0.250875176995863,-0.186635703624054,-0.0165156336679562
520,799,12.1159422546314,1.44184316222479,0.968882813971701,-0.426405723023843,0.20481134188794,0.0162978607439047,0.168610288567209,-0.188693479409938,-0.0943663620737635
521,800,12.1113095238672,1.44371947353043,0.969008368737836,-0.428618509278873,0.207626637447799,0.0143283481431408,0.19119170784436,-0.175463458324294,-0.0987957677452569
522,801,12.1066928284847,1.44571617756861,0.96918104467275,-0.429789422985124,0.210639093687614,0.0135909455389578,0.152560985478252,-0.143717909158052,-0.043496294655012
523,802,12.1021454123954,1.44783382600611,0.969428903999776,-0.427301818877319,0.214663455846883,0.0142796033369033,0.111371785599091,-0.0474848023278201,-0.0107325400488482
524,803,12.0975802083072,1.44999741733268,0.969752387100377,-0.426635202456024,0.217418720320781,0.0151030974033659,0.132191574111618,-0.00239297034930185,-0.0456741877060078
525,804,12.0929948438724,1.45217610522973,0.970134036825344,-0.428792342738068,0.218830708570007,0.0160132854896571,0.15219898321815,0.0654880444972148,-0.0600599344909405
526,805,12.08842503847,1.4543045721391,0.970568075188018,-0.431545777103079,0.217150098680885,0.0183113841730172,0.13781531894792,0.0253466910854665,0.0259402711684873
527,806,12.0839371696688,1.45634589981298,0.971055475577218,-0.43333889604207,0.213128200304105,0.0218655308630228,0.14061743678834,-0.0461307174836034,0.11604439225031
528,807,12.0795168952655,1.45827551850418,0.971583814307945,-0.434704571378054,0.206850587899531,0.0262727073554639,0.106645927067203,-0.104625081825141,0.171133722254378
529,808,12.075104773869,1.46004977386359,0.972139320444323,-0.436799493453965,0.197277393460908,0.0297466813425473,0.120491146195888,-0.194345627731965,0.11036238349992
530,809,12.0706615587165,1.46170282917527,0.972691730221396,-0.44100240368007,0.186150875517565,0.0314624478304434,0.173493002154665,-0.258208675762637,-0.00522640315712922
531,810,12.066138422385,1.46325767981031,0.973217726341619,-0.447846484305498,0.176340256156586,0.0309310074095063,0.271185148570456,-0.318252738064041,-0.169504730130566
532,811,12.0615908914087,1.46474630742988,0.973707091142811,-0.453903738836418,0.166080395760298,0.0302762906043645,0.168202718397905,-0.399531029980688,-0.195906293426026
533,812,12.0570248626855,1.466195484444,0.9741585977217,-0.459291148183515,0.158409766707528,0.0289002384837581,0.208034054814541,-0.343672018272342,-0.234190750735308
534,813,12.0524732682565,1.46762698785691,0.974570980431459,-0.463822946945989,0.151608593273001,0.0278244916704905,0.146222415436486,-0.324943923948562,-0.198528050159286
535,814,12.0479094585712,1.46906845669517,0.974942811159534,-0.467232906835154,0.148098191105029,0.0264612508509361,0.179324445370434,-0.248618117033417,-0.198297571645287
536,815,12.0433647611213,1.47052733224194,0.975277934046677,-0.467571067539461,0.145975536465696,0.0261800405034977,0.0744668868937627,-0.179465806925014,-0.10694508518148
537,816,12.0388000830084,1.4720285724654,0.975578650080645,-0.46581910581313,0.14718608088813,0.0248893492080149,0.0353019008970775,0.00950618213071051,-0.194612017547226
538,817,12.0342981504701,1.47361062301892,0.975837175662292,-0.464097048038332,0.148347776825983,0.0233244105540611,-0.0154898806518273,-0.0393980312262333,-0.163270180569297
539,818,12.0298393173173,1.47526417596191,0.976060023900628,-0.461619358531482,0.150289109039421,0.0220514258371572,-0.0468502392365963,0.0106788525506863,-0.134848105709259
540,819,12.025413305886,1.47698847490671,0.976247334703725,-0.45911531291572,0.152205984436565,0.0201953925533444,-0.0246039587355917,-0.0942066539506809,-0.139770010867693
541,820,12.0210276258331,1.47875351619654,0.97640457477092,-0.455231667214029,0.152914169405223,0.0187765333306466,-0.115552527230406,-0.115705984656094,-0.145289591939388
542,821,12.0166795942673,1.48056914807048,0.976535973065742,-0.450120798968752,0.153294237879563,0.0167054361142064,-0.0786802060188309,-0.170339308936232,-0.224637438067033
543,822,12.0123820265705,1.48238125788376,0.976641924524495,-0.443816428460386,0.152960383155086,0.0144720385474145,-0.190292131807481,-0.227426933205974,-0.258192049911325
544,823,12.0081297244904,1.48416039370893,0.976723533835473,-0.43793717695412,0.15070599487712,0.0119097335435474,-0.194112867866843,-0.244474182770979,-0.324641088785189
545,824,12.0039324195953,1.48588384699557,0.976772761844287,-0.431421874553029,0.147201254582653,0.00855397356695415,-0.232043045543428,-0.344967053550479,-0.393873333555685
546,825,11.9997636051852,1.48753885087274,0.976773916526238,-0.427153390729338,0.142892517012921,0.00395553472072227,-0.235739532687609,-0.376032387543832,-0.479661041516367
547,826,11.9956051827689,1.48912174765628,0.976709459503903,-0.423897970297505,0.139037434596779,-0.00107737538731296,-0.234056572847451,-0.336441009564251,-0.488496809366171
548,827,11.991403018581,1.4906534045306,0.976576807846392,-0.423414981261006,0.136724010014234,-0.00623714291138695,-0.214993682159401,-0.378779711104889,-0.428623228579571
549,828,11.9870834214468,1.4921314996816,0.97637514805761,-0.427966776118923,0.134936309113387,-0.0117156097686533,-0.146556520973743,-0.233510849413086,-0.401726807728484
550,829,11.9826097572281,1.49363046463319,0.976106254278862,-0.435033870946145,0.137138896094599,-0.0160509280730564,-0.225325070980714,-0.127047237388716,-0.345096534361872
551,830,11.9780090784155,1.49516397273801,0.97578771051314,-0.441724074958395,0.140419842596752,-0.0192314156179535,-0.457854632483951,-0.0210299732337458,-0.302290222879817
552,831,11.9733229720298,1.49675603879263,0.975427352643,-0.446596468631211,0.144684943089646,-0.022789071357134,-0.421397471666067,0.136856674758538,-0.277141577050815
553,832,11.9685696647625,1.49835704439698,0.975025751408778,-0.451067559396793,0.147661677027788,-0.0264158309879182,-0.39436125383422,0.321871311681507,-0.270015311896533
554,833,11.9637693160707,1.49996768416756,0.974583924887387,-0.454723102153041,0.150404746475993,-0.0297843314186628,-0.41595007813514,0.375412237721022,-0.278353940952289
555,834,11.9589422780127,1.50155787723667,0.974097424171034,-0.459163673025161,0.152655414972167,-0.0335984555678415,-0.428060166009002,0.425631136363205,-0.286286015796202
556,835,11.9541263373375,1.50310532108317,0.97357016322517,-0.46249182773402,0.152167226357713,-0.0373569404360536,-0.489643067067613,0.42006958920571,-0.263578208562053
557,836,11.9492645482641,1.50461420858815,0.972993128086543,-0.467850865645427,0.151097853083343,-0.0410769164491669,-0.496599208556807,0.196414163139996,-0.216202915076732
558,837,11.9443993241488,1.50608161800664,0.972381005512977,-0.474550030092596,0.149163540444662,-0.0441442694337298,-0.573609740980394,0.147910458990336,-0.163592831930989
559,838,11.9394925545178,1.50750025441361,0.971737076652231,-0.48320380069741,0.144622700529252,-0.0459853429800849,-0.551534914297868,-0.00493527695353414,-0.00458067204113567
560,839,11.93449419496,1.50885307009685,0.971082036722141,-0.493519453667118,0.139738830426143,-0.0459610906685101,-0.639765163822597,-0.207412304765543,0.223830910801858
561,840,11.9294822339333,1.51013065304261,0.970396689609283,-0.500429012425156,0.136026669528183,-0.0404474079033953,-0.705622447608237,-0.361455497545433,0.672158800359479
562,841,11.9244558433997,1.51147740702238,0.969805090841587,-0.505978978601982,0.134264600630561,-0.0320214106166323,-0.8703411871988,-0.239870964749172,0.998788736272791
563,842,11.9194560867451,1.51283221828466,0.96926501687187,-0.505459779909215,0.13392375658956,-0.0206090516401695,-0.596967327332338,0.054329155218171,1.37469985929458
564,843,11.9144296366438,1.51415446683085,0.968973225419113,-0.505234994089973,0.135932288759032,-0.00681308991742034,-0.341450992090188,0.314384753471642,1.40784463152672
565,844,11.9095533435822,1.51524750639251,0.968687585221201,-0.504143952102882,0.134947905257269,0.00680668776763883,-0.254891034851813,0.259646838155192,1.47676952367618
566,845,11.9044468553517,1.516710915515,0.968493659572964,-0.508532331829411,0.139181917017254,0.0194793156963855,-0.259332136139756,0.109163743392063,1.46711461950796
567,846,11.8993931049614,1.5178257737095,0.968370414819076,-0.51303300885192,0.137396078581919,0.0316179284274035,-0.232595405685768,0.225695417275521,1.47327504125929
568,847,11.8943156007868,1.51891798744357,0.968296466540061,-0.517137289708186,0.133709068153512,0.0411059791318157,-0.192314237185386,0.364170225686109,1.28794174327684
569,848,11.8893564842664,1.51984631258838,0.968351786961156,-0.514570601437865,0.124747249329433,0.049627895796677,-0.044630275728901,0.508993418999187,1.11009746347482
570,849,11.8844958787741,1.52068314814679,0.9684729470854,-0.510642557132014,0.112720658199779,0.0572357338423371,0.145475050425217,0.494720911160007,1.04349621081078
571,850,11.8797067485182,1.52136258479557,0.968627084848293,-0.508834418541672,0.0984021387489568,0.0647240529624047,0.0867710884998377,0.176529842453833,1.08759387585815
572,851,11.8749174563261,1.52176092579165,0.968788547405459,-0.508044085715417,0.0817944957525961,0.0716954187957356,-0.18097534749802,-0.146512976336997,1.09778980361043
573,852,11.8700357318587,1.52183535781269,0.968950302646339,-0.506352697334791,0.0649899842285991,0.0788396534692668,-0.0276838477236749,-0.231970875282853,1.1631946747866
574,853,11.8650486751193,1.52166489900885,0.969093594988074,-0.502893571635742,0.0498840925500281,0.0828664769742888,0.185901795211251,0.175387014221975,0.958826748265176
575,854,11.8598724994768,1.52137474454274,0.969184013679677,-0.505702896853668,0.0391764522826267,0.0813090045693136,0.239199400316526,0.37008891357473,0.503207804471248
576,855,11.8543973579625,1.52100565346445,0.969182880321992,-0.516773823570325,0.0321102136408979,0.0734175095372942,0.371553043063098,0.248149575800001,-0.0134133372418033
577,856,11.8486448052388,1.52060010603818,0.969074803723456,-0.530835552647487,0.0266336975905972,0.0623178628503224,0.154410428172112,0.142309023742525,-0.328392827993577
