,Frame,CoM pos x,CoM pos y,CoM pos z,CoM vel x,CoM vel y,CoM vel z,CoM acc x,CoM acc y,CoM acc z
0,503,0.334477704204683,7.1872848584418,0.911763920667474,-0.0532467561724992,-0.16437343973243,0.000670724875283909,-0.664948878972502,0.0603085752180471,0.504470641690743
1,504,0.333104054153815,7.18583169805477,0.911285206159275,-0.0776752569014615,-0.153156245544351,0.00385140477605587,-0.266656548221995,0.349698054213166,0.335652159533151
2,505,0.331320793817768,7.18480187982793,0.911129913020109,-0.0954691735123181,-0.128690523288161,0.00298245719354359,-0.261958326481065,0.75970297821839,-0.12407740463242
3,506,0.329200052115568,7.18443977063359,0.911207444009169,-0.111964093000592,-0.088545352684802,-0.0005422210569076,-0.00866007093775922,1.10704573332949,-0.618169720911379
4,507,0.32692088532904,7.18497530815427,0.911516032319064,-0.124169652387422,-0.040948631200426,0.00154199856419676,0.290678179424342,0.830980308282252,-0.416334384424564
5,508,0.324843339719712,7.18616111782868,0.912014683234541,-0.126142023380265,0.00113158719079281,0.00720260922060409,0.611711511875949,0.668670212190027,-0.167385075921651
6,509,0.323169555155593,7.18763326713289,0.912634127471281,-0.119960304921276,0.0324403379835699,0.0166524592355146,0.762175172015299,0.500012306152716,0.239772971470361
7,510,0.321861361088193,7.18906617826877,0.91340365551594,-0.115014662422599,0.0510662483704784,0.0342868815728264,0.81469403143168,0.105034874026196,0.951186646023886
8,511,0.320806912737722,7.19028800301235,0.914372420816447,-0.112803331206734,0.0611789817395968,0.0570348208911672,0.837981666396141,-0.0919641535524527,1.42701197752554
9,512,0.319919131993259,7.19120262430204,0.915525985241925,-0.110317532661888,0.0654415246536347,0.0774466285382643,0.644526099898071,-0.0656968199229032,1.27893296949236
10,513,0.319123624869377,7.19171304857141,0.916793029974682,-0.103227416014472,0.0611502824673663,0.0912961235239509,0.462344620368866,0.182354724189846,0.847669245537754
11,514,0.318385829692492,7.19184001422266,0.918100612630373,-0.0935348933984253,0.0510840450902027,0.100138536460023,0.302348119635778,0.345916214257577,0.506663687176149
12,515,0.317673801018121,7.19166590820347,0.919418856285,-0.0834719592643123,0.0368957232077343,0.107680519864536,0.54352540262058,0.364034399513611,0.430855229508873
13,516,0.317013798204269,7.1912752538922,0.920733324662904,-0.0723657363094549,0.0237418484193983,0.113639253251434,0.674676675304433,0.467682787300653,0.365001145190224
14,517,0.316401294194822,7.19072425925562,0.922044404802375,-0.0635772270127824,0.0129577448853205,0.119902063705267,0.759226312127217,0.569419608641402,0.374240041422602
15,518,0.31581247449464,7.1900594342673,0.923329748149064,-0.0542487718591609,0.00305918270361708,0.124432153876473,0.77460675404531,0.583718428470953,0.320221142616265
16,519,0.315343380292053,7.18925062529325,0.92457181398668,-0.0432613472494227,-0.0078431355787705,0.126069421881539,0.728125168199493,0.489315322894823,0.175503826587266
17,520,0.314984288404065,7.1883315584094,0.925748327457385,-0.0329516057994825,-0.0188878430525299,0.1247814598868,0.69583081299072,0.306839722509612,-0.0630801663384457
18,521,0.314758672779861,7.18736241753771,0.926835786184298,-0.0237449489035014,-0.0286364454609533,0.120272487215845,0.710116418963806,0.274804118610165,-0.332154088348181
19,522,0.31468225452889,7.18637888150397,0.927803417642651,-0.0135897940508105,-0.0367303459605361,0.11150132880409,0.628504132436324,0.290407224333118,-0.684131101493569
20,523,0.314751922362408,7.18543645222806,0.928622144393609,-0.00461995359436675,-0.0441191048299342,0.0984283621894811,0.486773903304466,0.2099847873661,-1.03499476572444
21,524,0.314895143977928,7.18457990422233,0.929265539975549,0.00154642505099461,-0.0482012250909373,0.0815791304460739,0.38545669663501,0.246777583578541,-1.35090867513795
22,525,0.315024469540243,7.18384142484039,0.929726000280972,0.00258496060254538,-0.0498478371134566,0.0638987377973592,0.515726378433939,0.250695374855893,-1.4812655376128
23,526,0.315092758752422,7.18329427998976,0.930009041428916,0.00263355564052192,-0.0469641683854842,0.0456017772486759,0.758027235634391,0.19929691826651,-1.60451739207083
24,527,0.315100411471691,7.18297273456973,0.930114132651973,0.00492928116715985,-0.0421147414383613,0.0269396315611017,0.886451123400306,0.121789976763927,-1.64712845771406
25,528,0.315077517016189,7.18290418101679,0.930045727251527,0.0118852012869307,-0.0339931449388432,0.00778128191539627,1.06386038340142,0.0919019623245683,-1.6922879581203
26,529,0.315079855306477,7.18308259810882,0.929805186428947,0.0212415374324112,-0.0233939197917135,-0.0120535340662343,1.09386468591328,-0.0102101139454406,-1.76173758027969
27,530,0.315158744199553,7.18350326401942,0.929387136334574,0.0318158665829488,-0.00924519402124129,-0.0329330620443987,0.936244678742086,-0.0982830635044805,-1.83985073935134
28,531,0.315332900528506,7.18412800028624,0.928792554060858,0.041029785742213,0.00610279875129629,-0.0533168049055487,0.808040032717072,-0.11572992515873,-1.79751836304892
29,532,0.315600845807452,7.18491629364661,0.928035107438239,0.0496779478274337,0.0212051346540375,-0.071290074767985,0.784625374799044,-0.1782529897013,-1.57659975582938
30,533,0.315959237429231,7.18584223818254,0.927142574789177,0.056445974771998,0.0360513512142895,-0.0862931074492119,0.670402307961002,-0.186329310322562,-1.31979058849512
31,534,0.316385851706362,7.18691228169532,0.926141457381782,0.0617724971770655,0.0504403418571641,-0.099292320382077,0.573336014070423,-0.272015313409506,-1.15490917298036
32,535,0.316852555341779,7.18807196096037,0.92506353743499,0.0660974057394531,0.0643202376726609,-0.10674398329782,0.579236706233852,-0.120016872520171,-0.692839825064932
33,536,0.317359664907627,7.18927392662152,0.923947093520252,0.0710003859537527,0.0760507680721343,-0.109379423154443,0.479035280728987,-0.0989410050158479,-0.276188247637787
34,537,0.317899012124746,7.19051178248676,0.922823914544192,0.074973024668706,0.0824713055231396,-0.110389646284813,0.2596103907211,-0.349128761151225,-0.141093314759225
35,538,0.318453403117149,7.19178780932767,0.921701190471382,0.0765884988572876,0.0897916304112398,-0.111976658473703,0.0759519049696755,-0.157363212117942,-0.197589070584442
36,539,0.318986805376946,7.19314683874439,0.920573840289447,0.0750946517371257,0.102629287402794,-0.113730253607585,0.022923977245128,0.432153012010404,-0.219878017951885
37,540,0.319520066764049,7.19458364167033,0.919464181972292,0.0695334815334695,0.117334854632284,-0.114652281395023,0.224466004936621,0.75856831188018,-0.168414592839093
38,541,0.32002927215218,7.19608373462715,0.918380937808311,0.0638836535394424,0.1311969141284,-0.113540243233195,0.456219729226943,0.731762408254925,0.0285178911882932
39,542,0.32052510128503,7.1975801693135,0.917342606148935,0.0585626601389761,0.140441414269679,-0.110845795187319,0.685975395073099,0.544362573005574,0.123714561861974
40,543,0.321017378749487,7.19896105433081,0.916342514116089,0.0541140333678944,0.144757977255531,-0.109684922980112,0.67132662858182,0.402600136265345,-0.0481699521100643
41,544,0.321491788397203,7.20019665895817,0.915478348935629,0.0467201515732176,0.147733167750479,-0.0930486090221036,0.456441834722088,0.335993888501142,1.17111326576895
42,545,0.32197579257694,7.20124867419618,0.914680978255789,0.0404075431555572,0.150486002056085,-0.106161709601974,0.124904758115358,0.575149799475156,-1.68619450805862
43,546,0.322427321035048,7.20214462380947,0.91386005466592,0.0445431833862127,0.146891422080105,-0.079924621668274,0.621095557171038,0.836494482222816,2.55040564505435
44,547,0.323196208122641,7.20293998198284,0.9132689220394,0.0595984494746924,0.135150956737999,-0.0658417195365618,-0.0407955233301906,0.391660493492195,1.6277153541608
45,548,0.324174815408305,7.2035920073806,0.912812113636055,0.0722820395283435,0.111907365976088,-0.0365070134310035,-0.278516908018679,-0.844325432873265,3.11342549043264
46,549,0.325485215063045,7.20396469046774,0.912488393592632,0.0914654495450187,0.0816256090253113,-0.0105484898594999,-0.494464140479835,-0.694335383410989,2.92675841230722
47,550,0.327369086257663,7.20403119310113,0.912188829935455,0.1147083316088,0.0455967145688118,0.0068538476740758,-1.48170057510398,-0.0540223009355632,2.46426864315558
48,551,0.329942980283692,7.2038580470724,0.911829275645501,0.1336365013694,0.0198392430684061,0.0241529023150461,-1.27047780533246,0.723061160730105,2.55340071463997
49,552,0.333498182008184,7.20368395199113,0.911300105089969,0.165644412410747,-0.000569872302420447,0.0335667321935444,-1.14930757518652,1.28489911890155,2.29529032364422
50,553,0.338067821150418,7.20390693543954,0.910544695854613,0.221709879979407,-0.0146742728676106,0.0278415684879376,-1.34069182950923,1.62405919105554,1.41522641673379
51,554,0.343251170046545,7.20427244400613,0.909797250766339,0.271229396027043,-0.0210943009583505,0.0147204986232632,-1.73553504814949,1.22691824717623,0.610089691398968
52,555,0.347703697565848,7.20326224665201,0.908635112881162,0.299415118548988,-0.0432107960853575,-0.00360549011813699,-1.35766098303131,0.0457036549585059,0.103751309558472
53,556,0.352557769691741,7.20270708703215,0.907169360416022,0.322923937996258,-0.0562496826704791,-0.0260414983514793,-0.852637205907386,0.19783239781155,-0.505723717757134
54,557,0.356821383130665,7.20248438566675,0.905667607967918,0.328413371550151,-0.0477568899997923,-0.0478792200153987,-0.40893146447453,0.371991048936689,-1.21005787577421
55,558,0.359992113034803,7.20311583513601,0.904387044060476,0.298426822939809,-0.0199334124204613,-0.0677778115465783,-0.392649085497341,0.160702778694107,-1.89355850428781
56,559,0.360548352747148,7.2043228628662,0.903547467387292,0.238232562102084,0.0239984289730625,-0.0755761449235671,-0.0203639842846098,-0.471558629233754,-1.65506809119752
57,560,0.360830299617736,7.20679427444666,0.903032687802126,0.18150697530587,0.0814972519442004,-0.0730789657372136,0.65002908480303,-0.413926843094727,-1.09284237030108
58,561,0.360004675267622,7.20896542671087,0.902888563837514,0.129215919121513,0.12794310253129,-0.0595559127873549,1.23033452347048,-0.140085868242256,-0.205382140848496
59,562,0.358649688470985,7.21023178734954,0.903109465554863,0.0898938554199425,0.145825366712539,-0.0399104091382697,1.39265130644493,-0.211058790730186,0.566663970818764
60,563,0.357117804811237,7.21083290226072,0.903763678705918,0.0580743949923623,0.143149205489647,-0.0120495110185309,1.28169882342492,-0.351198148992194,1.48331288435716
61,564,0.355456567478461,7.21086508752687,0.904869510790038,0.0259951549082228,0.12030148736838,0.0178394443606463,0.732255569089137,-0.778701997515649,1.75567325574924
62,565,0.354214435376741,7.2106908092981,0.906265462155631,-0.00667085731790745,0.0848666651036706,0.0492481717017093,0.335543656770426,-0.92482648965713,1.9607737632402
63,566,0.353275155961023,7.21019945605513,0.907755501354713,-0.0349946541590414,0.0443010297532041,0.075201087756115,-0.0825741486011564,-0.96480220741075,1.54868821605811
64,567,0.352597962354747,7.20938082541972,0.909448573162778,-0.0549241965718959,0.00895596893051781,0.095349830634485,-0.372286733756254,-0.748597268268403,1.00157231593761
65,568,0.352207922817979,7.20851793533109,0.91115901998114,-0.0633838658092521,-0.0138486785420627,0.106293693680452,-0.561425913083003,-0.596605465008215,0.295422569727586
66,569,0.35204827954821,7.2077537645158,0.912809576514562,-0.0614052193259724,-0.0258264059790656,0.106744698316444,-0.681165681385203,-0.429529684614902,-0.524950428653402
67,570,0.352012753103105,7.20733056511907,0.914317390615138,-0.0508289105048311,-0.0325909607114145,0.10972032964416,-0.535298570377569,-0.951837473042021,-0.0527089476031734
68,571,0.352036860107457,7.20724521487406,0.915714719730992,-0.036316686555327,-0.0357986318432325,0.107311734164484,-0.656751362294417,-0.868010790079775,-0.340014797806988
69,572,0.352077586099651,7.20752420405282,0.916948488244454,-0.0203972941200607,-0.0356374589041838,0.0990395735191631,-0.858442328870872,-0.907179139522025,-0.648058698982557
70,573,0.35210229069662,7.20810253981078,0.917994063881935,-0.0096666900941989,-0.0294946844022946,0.088359163131209,-0.87737333264741,-0.783859114869539,-0.836615237651581
71,574,0.352113190586812,7.20890827181958,0.918853676102236,-0.00631750692137528,-0.0186560320835482,0.0769841987545998,-0.901962825065475,-0.666205510525667,-0.94292138722612
72,575,0.352073027865363,7.2098773369575,0.919542121777289,-0.0102889152846598,-0.00397158014166187,0.0662620248747828,-0.922756580953546,-0.505544776078694,-0.951194675543818
73,576,0.3519551172524,7.21096231268889,0.920087515523767,-0.0210602563537559,0.0122047812276222,0.0559545332491546,-0.976848057215584,-0.412034289591738,-1.00518257551803
74,577,0.351748165343959,7.21211184022786,0.920503044750549,-0.0344983706748887,0.027251563628196,0.0454767340013911,-1.02285446271085,-0.422350524188485,-1.06088594666943
75,578,0.351466130593607,7.2132877963691,0.920793237593392,-0.046602698320432,0.0388405092941469,0.0350036240362333,-0.871577902007401,-0.518227605923025,-1.07144883740466
76,579,0.351152517701173,7.21443834176325,0.920975804743812,-0.0559387698219312,0.0451867715382745,0.0246077005901761,-0.648372375573639,-0.551194798329047,-1.07114958803897
77,580,0.350853330840416,7.21554625397521,0.921042702522176,-0.0604619561202504,0.051017396114653,0.0140429366028338,-0.454033666150083,-0.595459543690184,-1.0528091535821
78,581,0.350566639833912,7.21659009400477,0.921007715391536,-0.0632237464380723,0.0530660100705996,0.00339234062908359,-0.264662044207005,-0.570254490058513,-1.03841501479554
79,582,0.350264464715564,7.21751426280807,0.920875097888045,-0.0640606467614571,0.0520483044421785,-0.00772398710576542,-0.115469075513916,-0.566290038172177,-1.05743457142497
80,583,0.34992741253887,7.21825765188598,0.920649642917076,-0.0644223497319721,0.0496191850724298,-0.018424225864887,-0.00995956632250985,-0.511263137940779,-1.02154784705044
81,584,0.349560529133593,7.21878746389227,0.920334392097778,-0.0647588041345889,0.0442467285180383,-0.0286206039722408,0.111050439335546,-0.533057188837693,-0.983904044137799
82,585,0.349185563371054,7.21913680751592,0.919935750079073,-0.0645564616594958,0.0360695950060485,-0.0376001505838774,0.242520293301418,-0.548255771111822,-0.905479224614586
83,586,0.348857778613009,7.21937037084441,0.919453590596097,-0.0601372442274125,0.0286446257643446,-0.0466606961641099,0.320359542957996,-0.515821970321497,-0.873641347106065
84,587,0.348600884890693,7.21951560555244,0.918886820018063,-0.0541722162617187,0.0199792413936108,-0.0554994860482464,0.280686302902768,-0.468239550231817,-0.821390024658375
85,588,0.348375175035678,7.21959350363947,0.918241777719084,-0.0490730173255038,0.0112173429875093,-0.063605189578552,0.224702471764308,-0.406467254351674,-0.751994769700912
86,589,0.348137126282143,7.21963009449818,0.917534043789436,-0.0461137643675731,0.00337749305507878,-0.0699257866365493,0.217937776788197,-0.462657264032176,-0.630554087163316
87,590,0.347900903462218,7.21962117506952,0.916773534819438,-0.042788001021094,-0.00433796749436803,-0.0756421850640715,0.152168201369593,-0.408538796172799,-0.552956346639111
88,591,0.347676908341563,7.21956696421665,0.915964471951524,-0.0389164743426776,-0.0134955650281326,-0.0800787406115548,0.117114238136941,-0.336687075227535,-0.372647646914779
89,592,0.347429897679139,7.21943887166981,0.915133829041861,-0.037185991538032,-0.0251809101565529,-0.0820671371701442,0.152452701791308,-0.380192988016192,-0.144497435925326
90,593,0.347061858232851,7.21918499269297,0.914365114360619,-0.0410978481065687,-0.0368055477284323,-0.0670203450191597,0.128378221211851,-0.47528110109028,1.31899050628375
91,594,0.346652279069434,7.21874231323808,0.91369985411606,-0.0561700967041152,-0.0396254675502727,-0.0697818942175253,-0.662008587646853,0.178330031850929,-0.48844849334131
92,595,0.346118945360948,7.21831529921214,0.912922808403251,-0.0630184193927861,-0.0424106908449214,-0.0605478900720541,-0.187634140628274,-0.954773205211236,0.900018406020183
93,596,0.34547700506611,7.21780017736603,0.91235310019816,-0.0722278932240718,-0.0319614522798058,-0.0331410205339487,0.445155544460641,-0.376205639677583,2.63306377527618
94,597,0.344836725249353,7.21723646441183,0.911960431331246,-0.0754473255895471,-0.0155348282324272,-0.0121662999417963,0.595813609862707,-0.03150905712454,1.99425633885758
95,598,0.344251824053503,7.21687642532078,0.911659342373303,-0.0850080933191437,0.0174604389213325,0.00400485820537459,-0.5042601988566,0.403452462841214,1.58028320666562
96,599,0.343938592038969,7.21666124449401,0.911358416224975,-0.0813566604668856,0.0426679290392154,0.00325749144114204,-1.88546219908816,0.382688330443277,0.564013636257308
97,600,0.343868755587115,7.21643593371921,0.910974559896016,-0.0590166256373169,0.047725239469851,-0.000907844651113179,-1.18972102152443,0.204052651705275,0.517237755857967
98,601,0.34363086820685,7.21628384235555,0.910530817047342,-0.0361654455188594,0.0407937953904102,-0.00959437277452259,-0.159745068506002,0.171631941563912,0.268291405753416
99,602,0.344445866492614,7.21613180275371,0.909895169047366,-0.0019406797912336,0.0280588418618786,-0.0235265521608502,-0.510459485352904,0.543963143109591,-0.066436997954306
100,603,0.344714826465553,7.21628221829266,0.909229493348806,0.00589025936679043,0.0194489057435202,-0.0223641573682612,-0.775009050507294,0.184806300906442,0.778730458711295
101,604,0.344830317680249,7.2158315120475,0.908610068609523,0.00945301467536359,-0.00256332814912714,-0.00458438348200239,0.274070966521621,-0.194399858826354,2.02880384456259
102,605,0.344926028495897,7.21498360126778,0.908260553478347,0.0156362726577771,-0.0385199275982959,0.00784650490935031,0.0527796832795721,0.361715319357437,1.67229518400044
103,606,0.344683841969521,7.21380097590042,0.908133985702,0.00510018902429858,-0.0686005802371445,0.0145514451143801,-0.178090150507777,-0.325612740632064,0.812847747295756
104,607,0.343898808008032,7.21222049313475,0.908152216629857,-0.0122188816186172,-0.0956435610214446,0.0145339427175417,0.0258832125416149,-0.368810733180459,-0.0490741538945973
105,608,0.342475482722419,7.21046383653344,0.908300625459958,-0.0328711977232306,-0.117140604319406,0.0112549685572867,0.297387631076262,0.139597618930433,-0.576772318180092
106,609,0.340530944523577,7.20900198467237,0.908670669733091,-0.056212418324435,-0.121949330296959,0.008522176921117,0.633996119849901,0.398730338830915,-0.851153954963494
107,610,0.33834027670785,7.20840337655591,0.909228032450838,-0.0804880482231914,-0.104119385890904,0.00809687519029912,0.787255324895186,0.621212460396423,-0.822007629422341
108,611,0.336313678188921,7.2088000977938,0.909973127160911,-0.0982183652897041,-0.0702006271686373,0.012654861945167,0.858101249839474,0.571218877330175,-0.479152353441653
109,612,0.334570293155056,7.20987091532804,0.910800062441873,-0.110510876035165,-0.0298066146180307,0.0220836244337171,0.615186290848679,0.567213924997009,-0.075145953556787
110,613,0.332964098873226,7.21119225972414,0.911654309625813,-0.117604481874949,0.00617191608475881,0.0391244854470832,0.765629233676243,0.635827101890413,0.657792659114396
111,614,0.331450991481958,7.21249351730878,0.912590579775562,-0.119950621393375,0.0316221023453317,0.0611145988820343,0.96582292595148,0.215822988640259,1.21509376253418
112,615,0.330089688752593,7.21357275189575,0.913626175346204,-0.11662577908941,0.0477631294604581,0.0791931201286799,0.851096779263476,0.402012682289113,1.12169031486825
113,616,0.328914132541976,7.21436272796964,0.91464325822194,-0.112305476816817,0.0526571486177947,0.0906404680219593,0.583630253409449,0.594157154358247,0.69290369866471
114,617,0.32790520098421,7.21490850515368,0.915701349883827,-0.107127092435377,0.0492355485860527,0.0984462457112211,0.416810234341442,0.492041088751493,0.464307795072103
115,618,0.32700269589295,7.21518009862646,0.916779863075491,-0.0993819518421182,0.0400934646673643,0.102766986113751,0.397374254099709,0.393700470859506,0.274015899334998
116,619,0.326150421334286,7.21537813325487,0.917843387106661,-0.0909275922081432,0.0331347780585247,0.104109424243748,0.404769801174723,0.386325272628057,0.0883032142854502
117,620,0.325346424524798,7.21530203897072,0.918875071698088,-0.084240430542804,0.0254056739725874,0.102878980977168,0.334652968907078,0.467376053583886,-0.100438125236204
118,621,0.324596325365696,7.21510406452909,0.919850391364001,-0.0770720693025784,0.0212227413578543,0.0994824000909103,0.476796928567735,0.437251540097071,-0.290812427093017
119,622,0.323954705925648,7.21476710828527,0.920743494862171,-0.0681469938963887,0.0165412614695809,0.092980874562277,0.423238560643664,0.466194487589517,-0.525419886200092
120,623,0.323494673002248,7.2143198847196,0.92153106379278,-0.0566581115001751,0.0123871147557925,0.0832249774180008,0.317003504157455,0.613656168912283,-0.784941819621543
121,624,0.323238796546595,7.2137971878718,0.922193705107796,-0.0451914206957346,0.00683160363939335,0.0711664034956947,0.198147276418949,0.579059049995001,-0.996751659456659
122,625,0.323100270220716,7.21329453056537,0.922724425673738,-0.0378125451858145,0.00285703714487312,0.0588680390896784,0.347381723984375,0.376711437913002,-1.10308727034013
123,626,0.323040228602987,7.21286667879878,0.923116872890313,-0.0305329836295381,0.000468912822252597,0.045485661558512,0.45270588058104,0.359407055520576,-1.20992625642953
124,627,0.323046073380162,7.21255481617862,0.923358550125196,-0.0212513399968288,-0.000136963272562401,0.0302463964106474,0.517400347215739,0.379491855112535,-1.36049363235508
125,628,0.323092137223934,7.21240190604585,0.923440086982129,-0.012380844159349,0.00155840624535326,0.0138479101921304,0.53253761049646,0.208062894465531,-1.47113083278844
126,629,0.323170262423638,7.212394344003,0.9233504142282,-0.00238440337850622,0.00384234660230908,-0.00405296253734465,0.561314992785652,0.123320115457592,-1.55265438986611
127,630,0.32325273965248,7.21255240002327,0.923104781418363,0.00379406488025474,0.0107374232507804,-0.0201020873367198,0.508688222523631,0.156572264643033,-1.48320848113702
128,631,0.323350956341402,7.21289096869342,0.92269846015994,0.0105656458534974,0.018707410802893,-0.0373726352137628,0.508197111991932,0.120338220710719,-1.52796230870679
129,632,0.323457194281086,7.21341725250975,0.922148906662425,0.0157646295096508,0.0283650196753167,-0.0523217376122697,0.479658681642629,0.123000783166642,-1.35037549507566
130,633,0.323599921809039,7.21409817185211,0.9214701323375,0.0213261870119993,0.0394967695804961,-0.064784431455088,0.497962683037023,0.0391492367516791,-1.1063093121054
131,634,0.323723271883746,7.21490466495163,0.920685533913573,0.0261412105965795,0.0494738494961788,-0.0756232326962726,0.485368582321875,0.166566271687641,-0.957067115993814
132,635,0.323862375313186,7.21582354667236,0.919810263847585,0.030104830649813,0.0598394481080085,-0.0837112152452318,0.432613792835132,0.122203199540535,-0.702731586151278
133,636,0.324014449753593,7.21685312942324,0.918858842028031,0.0333467034836768,0.0690148924470579,-0.0905052218869185,0.395240595234667,0.116788671475341,-0.567124290493601
134,637,0.324168258025143,7.21798865302282,0.917849013089663,0.0342954761718934,0.0798655325480728,-0.0960097237623146,0.283449804618141,0.213311164121241,-0.498248521179422
135,638,0.32432772085268,7.21923007490233,0.916803376207618,0.0318501905496847,0.0913547703111374,-0.101326037114913,0.112206846065677,0.231470983547932,-0.499365410072158
136,639,0.324420923762841,7.22061809803223,0.915718474481634,0.02539703981219,0.104414707424255,-0.105466448603287,0.0603217437039996,0.31226455580866,-0.415107018952893
137,640,0.324530958765146,7.22206782429652,0.914614338565097,0.0190547753481311,0.118411420088521,-0.107960473813509,0.245467003401579,0.428942056465087,-0.268156557482314
138,641,0.32469415627269,7.22354410730862,0.913630693593671,0.0144584109704741,0.130736858034912,-0.0893014601300189,0.503535648038897,0.456764718829752,1.50116099117653
139,642,0.325074114819059,7.22488861438925,0.912711634142566,0.0154376144697553,0.136424849139461,-0.107518325484463,-0.0883073392011752,0.692141948191698,-1.96836500595084
140,643,0.325343023162195,7.22607771982114,0.91178844933979,0.0077600544139683,0.135638842786787,-0.0667150680436382,-0.199968150133547,1.12889962815868,4.07975491038836
141,644,0.32574379194419,7.22724324849353,0.911268978451111,0.0128907713077376,0.129780314659393,-0.0318285432691854,0.534256939897126,0.054313906553251,3.7275902991354
142,645,0.326378427261598,7.22824699472609,0.911079916180605,0.0333682229364701,0.100913608772654,0.0107620409210125,-0.425810846718287,-1.03711763545183,4.76104891531064
143,646,0.327052523489177,7.22885289166083,0.911209118786211,0.0405254914358225,0.0709779504080247,0.0416431973916624,-0.672533841934523,-0.547398490451828,3.41327954980146
144,647,0.327708215986012,7.22903225315495,0.911460248688065,0.0365988664738258,0.0413520793390428,0.0592414854273846,-1.48752626829353,0.0851287123644245,2.32271068647672
145,648,0.328494210545807,7.22897395051524,0.911696913595952,0.0418440339415621,0.0241537256687877,0.0629887326016717,-1.18522099131088,0.63630449079124,1.14990415116045
146,649,0.329901600270705,7.22888384874264,0.911833208134385,0.0685808047950238,0.016413757267994,0.0539191278658215,-1.26957594381331,1.11256222405938,0.162864020114957
147,650,0.331830870040054,7.22894698072423,0.911549833730809,0.102330904649178,0.0154622171965871,0.0300391080160538,-1.59175299301288,1.24505076680401,-0.846998690333024
148,651,0.333094168301514,7.22849752926097,0.911035024570852,0.126667812501926,0.0132135907483077,-3.20606105508583e-05,-1.8133746045451,1.58011814041114,-1.57156821963058
149,652,0.335521166066066,7.22862821481426,0.910290811747325,0.153612066090511,0.0176582390816724,-0.0258195793879959,-1.43148738230007,1.49384322618836,-1.3740258738044
150,653,0.337900754323896,7.22881533920268,0.909718932335959,0.174204564682401,0.0184460399445458,-0.0451808154514217,-0.376212130517781,1.01937291444016,-0.565321668658294
151,654,0.340447790034306,7.22925947557235,0.908687492876272,0.188137352424889,0.0148429937932064,-0.0555988000627434,-0.0340518812850727,0.0736413201997311,-0.427865112119557
152,655,0.342831582531134,7.22984046869181,0.908062972671907,0.192036083227514,0.00693720535831995,-0.0528603459834768,0.457780218827907,-0.606641835621664,-0.0894046968215668
153,656,0.344722084029209,7.23044958210004,0.90760252992499,0.179401961173964,0.00248013962256032,-0.0527555555787446,0.462472595444172,-0.888326174437768,-0.622189689731531
154,657,0.345370681001066,7.23086549618923,0.907258358130109,0.142393042693502,-0.000214667984641478,-0.0506277294647195,0.519593996288448,-1.21882891906307,-0.744018289657087
155,658,0.344528735125106,7.23068449397702,0.907224837660432,0.0893469551655525,-0.00397055066593427,-0.0436223734981907,0.524656956595969,-0.91982246378246,-0.436500401452051
156,659,0.342771524312647,7.23008381678399,0.907454301036357,0.0348708953431431,-0.00741678806877978,-0.031148406379209,0.662108985292214,-0.410276041110708,0.0389207074605085
157,660,0.340487386171653,7.22936192284959,0.907980941789697,-0.012544647159824,-0.00639992109089816,-0.00998434267955276,0.988395827296084,-0.266208980045217,0.777627957180328
158,661,0.338062280857372,7.22873967909692,0.908789611063487,-0.0506176260988163,-0.00347043442171887,0.0137152962901211,1.08627065189896,-0.528230147594885,1.0241437312346
159,662,0.335720334415482,7.22830128780892,0.909829413640653,-0.0776753645795642,-0.00257361364147498,0.0375730754466109,0.691580889423326,-0.868893514502532,1.25412748201521
160,663,0.333676302045698,7.22799055244777,0.911044376020244,-0.0966129172195779,-0.00884622308504705,0.0577950397942768,0.113197537403867,-1.19675419998591,1.15126933047893
161,664,0.332019170464421,7.22774134367279,0.912358873113943,-0.110756890124373,-0.0177146499026327,0.0732566638660954,-0.408706731119361,-0.972987183396703,0.831806364006757
162,665,0.330798026473737,7.22759027244947,0.913704768892516,-0.121396177572398,-0.0233298919157412,0.0816888039229846,-0.653473087258558,-0.8830465233957,0.141639203615186
163,666,0.330014495918147,7.22755767630896,0.915010126468375,-0.121940217608884,-0.0288578741349612,0.0899713584736425,-0.286647863022932,-1.07455694795484,0.183022811587387
164,667,0.329620844929703,7.22759648849764,0.916269666997887,-0.11145155338243,-0.0327714138585875,0.0993123701608955,0.112211709123345,-1.34702207212584,0.403493766753009
165,668,0.329550189545151,7.22761797406995,0.917487102932435,-0.0962180442209314,-0.0345935004495476,0.101310091540256,0.157408794621403,-1.24181505546063,-0.152541239928127
166,669,0.32980630572458,7.22789970019168,0.918299184298132,-0.0787236564656069,-0.0368706236139426,0.0991815405606996,0.268904276706349,-1.40729049712381,-0.43917092627193
167,670,0.330157273088623,7.22795648044345,0.919293954774303,-0.0525036227765956,-0.0369463016927133,0.0894788973331161,0.319846629957868,-1.16674066220795,-0.87840608959086
168,671,0.33058859390966,7.2280989460395,0.920086051361248,-0.0286650897642367,-0.0338425429124349,0.073899647980974,0.256566312225726,-1.17532520526347,-1.00977246875101
169,672,0.331090688418524,7.22831565338146,0.920698940594686,-0.00765049195106199,-0.0318067907089003,0.057431905885623,0.175310671862278,-1.08473815310533,-1.19220355975141
170,673,0.331614555566636,7.22864264177591,0.921147255359316,0.00759904814667199,-0.0276292979802292,0.0427337365033107,0.0317168182091116,-0.971338555575516,-1.15870975728514
171,674,0.332118037068813,7.22906266037083,0.921460190910923,0.0171445025764574,-0.0225923037024446,0.0311708239079187,0.0659726021429579,-0.806745555218937,-0.985568421503778
172,675,0.3326030195497,7.22954168435402,0.921663375838497,0.0219546717926917,-0.0179974910217972,0.022409300001699,-0.0180394440125604,-0.725476688581274,-0.787431855813399
173,676,0.333093870610791,7.23002499902099,0.921774295053751,0.0231677081041195,-0.0138894293256054,0.0149865296022602,-0.130793204890433,-0.749926770700301,-0.696156603934964
174,677,0.33355488589267,7.23042759214782,0.921801986128278,0.0193985330800365,-0.0129015857498001,0.00830763365165063,-0.204869090723358,-0.656198873390838,-0.660422915989375
175,678,0.333976255321532,7.23070709095287,0.921744153526501,0.0130344339918304,-0.0127385857193889,0.00131076579149475,-0.196627436800293,-0.470347217857006,-0.709289513609183
176,679,0.334389663442056,7.23092997241129,0.921614608703014,0.00486755879963254,-0.012163321878925,-0.0049595608743952,-0.185109553401967,-0.428209457837184,-0.714548755929368
177,680,0.334754684272371,7.23102014489669,0.921383150479343,3.08403787289201e-05,-0.0118401670617915,-0.0132975751364851,-0.0832911286816516,-0.427607213092826,-0.845674494459815
178,681,0.335087444501255,7.23102930421554,0.921052570181241,-0.00187632700569067,-0.0128987407536929,-0.0228839174605886,-0.0607239575908518,-0.520432295869833,-0.910517508394416
179,682,0.3354010940522,7.23095389669803,0.920616469842809,-0.0011975631265857,-0.0150822390153053,-0.0342212772600012,-0.0245324233127095,-0.520041611827022,-1.01634602699584
180,683,0.335705856968817,7.23079836857436,0.920076138921486,0.00107019820138211,-0.0188579495938047,-0.0460576420387386,0.071769088821205,-0.566188419845767,-1.07174254738696
181,684,0.336023459088003,7.23055499769049,0.919426480659529,0.00523754558770512,-0.0246980176805079,-0.0597520046074214,0.103956303438502,-0.553503934526607,-1.20450103453727
182,685,0.336357922092141,7.23022901310117,0.918674808067209,0.00778453903130707,-0.0324382627628059,-0.0729101699795394,0.0620277365256335,-0.522948810696569,-1.21436877378988
183,686,0.336682812042655,7.22981917061045,0.917837327157289,0.00815311362959078,-0.0421231821756834,-0.0842769766365079,0.110924977345648,-0.461163389311951,-1.12960212046972
184,687,0.337013149462183,7.22934126103907,0.916930339030206,0.00845023841657888,-0.0521818455873298,-0.0954952331274235,0.201714570733166,-0.371415205513304,-1.18280263118292
185,688,0.337375356745151,7.22882463421492,0.91595538473366,0.00970170949413537,-0.0631474061924084,-0.105892892556036,0.263994915825258,-0.562729590887628,-1.14299486664228
186,689,0.337720905475577,7.2282578503563,0.915009200093983,0.00519131721881234,-0.0707403473552276,-0.0970633964091235,-0.102690599560136,-0.252444548238883,0.502921927674835
187,690,0.338234514606888,7.22761515172758,0.914064665049257,0.00407030379713466,-0.0766867444625266,-0.117723077502667,-0.471187344518861,-0.488004992532888,-2.19704493796823
188,691,0.338717933177403,7.22693017824127,0.912930314956793,0.00848828036726397,-0.0795128713752067,-0.0936414936399362,-0.246005505165111,-0.760014036998513,2.49937512966219
189,692,0.339321648665895,7.22608082941018,0.912030035603936,0.0147809551497142,-0.074640626573882,-0.0726271073083254,0.282039074649393,-0.0359033560416888,2.29390603354613
190,693,0.339895007593991,7.22514129763731,0.911258663475106,0.0235045553461655,-0.0544804930022351,-0.0423559615075871,0.291742589769725,0.2438725664298,3.05896285834801
191,694,0.340378435857863,7.22424101700175,0.910577169073701,0.0180844629605094,-0.0204346602437912,-0.0250607482584702,-1.0723304050328,0.435332065851663,1.82048246161863
192,695,0.340630564686666,7.22340808187848,0.909870223412313,0.0107873637047608,0.000399512033565064,-0.0248368008394425,-1.572784568201,-0.158436170134882,0.510709672833689
193,696,0.3406430458855,7.22260820108693,0.909204859508749,0.0255107388756429,-0.000124945366068907,-0.0342636125436334,-0.413892115863635,-0.239227445334597,-0.105916313757923
194,697,0.340408742098153,7.22214641362626,0.908668496322959,0.0355129536238744,-0.0010703864196345,-0.0378979770511471,-0.102377704710561,0.439907948281247,0.286309839826505
195,698,0.34206668553577,7.22249298273709,0.907956638662185,0.0610646853306417,0.00885484721153747,-0.025825426387402,0.438612348718453,0.456908271882135,1.79278722729616
196,699,0.342170236700715,7.2220118509468,0.907382683847525,0.0817316714981029,-0.0152298306191162,-0.0100631406800631,-0.464858094319037,0.926592643357912,2.46054238068801
197,700,0.34345062880086,7.22168717544088,0.906948067386213,0.0997602234162726,-0.0469125211193553,0.00206434556094775,-1.73387381933344,0.41947942352827,1.8803641187303
198,701,0.344231537986501,7.22101546013629,0.90670817104327,0.0816107033683945,-0.0838521578527627,0.0102875075213874,-1.85810814234514,-0.255802799779058,1.04906040462466
199,702,0.344150737126633,7.21977530435286,0.90658733498336,0.048214810801995,-0.115730896062181,0.0112715938454621,-1.40519214192561,-0.11685830249674,0.236726575995205
200,703,0.343140442939697,7.21790639412085,0.906560877789344,0.0140401535379782,-0.138647744928091,0.00923839043460862,-0.544522227868017,0.712991504854618,-0.174769785481928
201,704,0.341270145227508,7.21574368897414,0.906826950209261,-0.0224911973360094,-0.150664932761773,0.0143459953062509,0.366177649693087,1.05940693316011,0.00729669336185566
202,705,0.338871644595606,7.21372746223626,0.907404785054805,-0.0576463301393356,-0.149401343117736,0.0287451354486224,1.32411127409819,0.82631597073094,0.499640537001588
203,706,0.336620277135318,7.21242387059895,0.908337762210441,-0.0804369842268805,-0.130750885473837,0.0386806654967028,1.34892859163352,0.786792627574677,0.125308139457025
204,707,0.335143812713085,7.21194170054482,0.909621523184879,-0.083756931325807,-0.101556222466088,0.0494339678841381,1.59325961270814,0.43091468171065,0.13676620683025
205,708,0.334320945058242,7.21208084179072,0.910801938270362,-0.0777836109181582,-0.0716160917946158,0.0666481290536088,1.28052328734724,0.48807688356752,0.741126764955084
206,709,0.333971519985041,7.21235213621904,0.912021815588391,-0.0633472706250592,-0.054141007488704,0.0816609560689346,1.24596232421662,0.00485805877711527,0.848274349424385
207,710,0.333832351993386,7.21255606327775,0.913302355578891,-0.0518806652210475,-0.0434314001171596,0.0977772401348545,1.15384018492562,0.0868953297641378,1.00594656089023
208,711,0.333813991333009,7.21268796458923,0.914642717900452,-0.0400239848250477,-0.0392488990014628,0.10806287318804,0.947678591919927,0.210896359824587,0.57391124003299
209,712,0.333842268782725,7.2126647519907,0.91596276640402,-0.0269709437785754,-0.0423697558734185,0.11097579038868,0.490071990311469,0.212700099907911,0.0242239030191384
210,713,0.333786874364423,7.21240877174992,0.917212839423746,-0.0157019132648242,-0.0466070521645904,0.111935078751457,0.189761523795136,0.319909310725169,-0.0766592280504147
211,714,0.333557019851365,7.21191256208701,0.918392801756138,-0.0107906302677042,-0.0497034370171628,0.114467126365172,0.239194247085081,0.475830665628433,0.116488614619263
212,715,0.333172838284424,7.21121442388113,0.919513198926513,-0.0106836870266743,-0.0513409620435181,0.116998152778716,0.277874848780515,0.697739301284972,0.213862986684734
213,716,0.332698325600403,7.21035880786848,0.920579067380508,-0.0135836136693061,-0.0529380182674547,0.118481358255327,0.3623739825172,0.786017296503213,0.169072640997075
214,717,0.332204406302558,7.20942900774325,0.921586501378641,-0.0186502167687144,-0.0516846919893275,0.116618745771025,0.292845535006979,0.796317250810589,-0.09364486799309
215,718,0.331744409272356,7.20850425061,0.922415403649517,-0.0242903410199042,-0.0477102057421696,0.111122377819099,0.329234421462143,0.629724438728662,-0.390511058325304
216,719,0.331406075624811,7.20756892983627,0.92312767682377,-0.0243125083267338,-0.0464258220236546,0.101036177649652,0.349933163283706,0.543690443337259,-0.744803700577815
217,720,0.331240610395574,7.20674856575217,0.923709117173561,-0.0183099887635633,-0.047772859737832,0.0853472872419005,0.212356514942958,0.556983892907993,-1.1673264665676
218,721,0.331221734252462,7.20589728293848,0.924150474415617,-0.0127329918993101,-0.049199327913132,0.0671305820532976,0.300839522680436,0.25332250319449,-1.46238775332204
219,722,0.331292071219184,7.20512719001606,0.924437486105475,-0.00800936906063089,-0.04934119505128,0.0484576972971757,0.480119639852084,0.127507604750424,-1.57861518207391
220,723,0.331442182487851,7.20443333028996,0.924558495680312,-4.12410839942734e-06,-0.050491589292145,0.0285032182956288,0.457172495346888,0.225551109531316,-1.65529528438673
221,724,0.331641953303675,7.20389049194951,0.924520137043785,0.00709247273580318,-0.0475094094305755,0.00949925349745329,0.494246113406977,0.145138380637277,-1.64501310296546
222,725,0.331873612762375,7.2035154078392,0.924325215702713,0.0144369591640445,-0.0422322856164618,-0.0088528337192886,0.543477383106858,0.113927959440837,-1.5990602717818
223,726,0.332141631769681,7.20332537718933,0.923975992190403,0.0223224308812791,-0.0347760124978121,-0.0270485690931557,0.55096943274522,0.100197741239631,-1.5989893867673
224,727,0.33245575876394,7.20334421777907,0.923477372484694,0.0300266261851817,-0.0252212255162134,-0.0447687823776474,0.513832260332656,-0.00375507238332549,-1.58161736066348
225,728,0.332822526601856,7.20355313948327,0.922835091936447,0.0365466658861882,-0.0133478638208479,-0.0611178890130437,0.474927524910462,-0.0429051428594632,-1.47274436669089
226,729,0.333241864448749,7.20393827171164,0.922054404251059,0.0423353854125718,0.000827226065141301,-0.0766643497713969,0.319900486606604,0.104433815397412,-1.37958041094039
227,730,0.333670555001831,7.20452781136711,0.92114981723828,0.0447044521886867,0.0157662472500682,-0.090483872271579,0.238215959999921,0.189991049050387,-1.28008471468228
228,731,0.33404489877693,7.20534600360694,0.920146878109339,0.0430347908749553,0.0333681810645149,-0.100197895456032,0.193765413215779,0.195517854591612,-1.01680723657872
229,732,0.334347498654723,7.20634765257928,0.919074102140028,0.041799208992488,0.0489762171125292,-0.105938476340359,0.296199017223585,0.0667235704757567,-0.689805650050676
230,733,0.334607134087722,7.2074792690503,0.917952573083221,0.0418169924989362,0.064087439296921,-0.110166459411328,0.198373850213743,0.177106767896889,-0.496805007773804
231,734,0.334850597551001,7.20872512342592,0.916810811028272,0.0389489191326173,0.0787977481088478,-0.113290053328943,0.0944523352811651,0.202848727313895,-0.400753549833237
232,735,0.335124542046541,7.21004627389904,0.915647949161883,0.0376141610142577,0.0928972608297406,-0.115847321323273,0.0767669241411706,0.294019549248996,-0.300279864166053
233,736,0.335482754596165,7.21142488101586,0.914463381912687,0.0375687356691328,0.106219060843417,-0.11727132084248,0.167647872916341,0.388302317618119,-0.156148770862909
234,737,0.335987627761281,7.21285249485334,0.913400241762415,0.0385139766067868,0.117703764427219,-0.11428457159742,0.0375728259778105,0.406254233290361,0.218472579389054
235,738,0.336796197069885,7.214253625959,0.912522141753135,0.0470284650159804,0.126000998779111,-0.100379379270316,0.542764586815511,0.524539230928964,0.945013717289443
236,739,0.337916282642003,7.21545953005574,0.911678414551492,0.058920642546687,0.124447071968813,-0.107010775017022,-0.812991136330632,1.14290461318942,-0.61132248972032
237,740,0.339155893630774,7.21651864488045,0.91093081341518,0.066133088275792,0.125890707299171,-0.0676146421887154,0.0206202865933988,1.11143013808486,3.95097810171127
238,741,0.3407298067435,7.2174060839549,0.910489596338582,0.0835171673394887,0.104801421930644,-0.0325359704976061,-0.206892055141571,-0.312737530536948,3.7397904197796
239,742,0.342799831431877,7.21827280451233,0.909935748857445,0.102960600796363,0.0778737088093292,-0.0048056281865791,-0.817388079574473,-0.556144364704202,3.59923978734594
240,743,0.344444026500074,7.21853722986765,0.909584110702786,0.0967073268137877,0.0468418297350806,0.0122161155232848,-1.51927345599255,0.217407405582608,2.43560112539055
241,744,0.345821774903672,7.2184619694852,0.909282604033015,0.08410735911904,0.0238556685717503,0.020801204447834,-1.65032694794493,1.0368725049934,1.72911819859009
242,745,0.347115143891354,7.21827026805213,0.908884153557007,0.082863559123461,0.00954388713946819,0.0209843621093451,-1.34204909910148,0.965773508954626,1.08254233416965
243,746,0.348514989529821,7.218032926597,0.908528661018915,0.0962007096543621,0.00168525021142657,0.0117190688477981,-1.31872799620061,1.02688816034729,0.234861448171469
244,747,0.350090803902778,7.21775551812215,0.90809490449398,0.113984215130709,0.000850925301661096,-0.00157900882474961,-1.10768388877271,0.568236276953942,-0.231540748808185
245,748,0.35075209812061,7.21698403995834,0.907560866582566,0.128057619676336,-0.00482796362904378,-0.017563522938806,-1.05740587769894,0.843236365343518,-0.624085351274806
246,749,0.352608240378164,7.21647991836353,0.90680318024214,0.152588075281077,-0.0136555552240122,-0.0354608093034901,-0.856323053487982,1.15210075262792,-0.827316801029769
247,750,0.355222216732428,7.21646669987273,0.906134103465019,0.178524054863823,-0.0205335969984102,-0.0454871874799823,-0.184820060462034,0.807735064776121,-0.23988463715855
248,751,0.358135918810279,7.21714675729069,0.905650173135569,0.186937150725473,-0.0191239970788259,-0.0469485105287413,-0.0951455085620224,-0.196122427630024,0.09543830401785
249,752,0.359827123881344,7.21810719233767,0.905427023297711,0.163154374469538,-0.0114788107109859,-0.0432560619544388,-0.584297138770558,-1.04470697685462,0.0237701651635574
250,753,0.360927929845557,7.21904630270231,0.905251938393187,0.12847731358082,0.00122034934950537,-0.0392724450769099,-0.439198061122134,-1.00739672238097,-0.21520918350656
251,754,0.360725871121819,7.21954927609879,0.905164340474201,0.0822902541320679,0.0179784495855688,-0.0341508759975199,-0.112726659123453,-0.75409750587301,-0.304780232735661
252,755,0.358843748517918,7.2192260079165,0.905376718299034,0.0237941588008166,0.0253624329613293,-0.0243494782398614,0.175927870811941,-0.693884426304698,-0.115037463102744
253,756,0.35622337237592,7.21860042020655,0.905927348583925,-0.0290730870880896,0.0290953559657336,-0.00544629409100381,0.456916967872741,-0.52189969945716,0.598566609692952
254,757,0.353275032429625,7.21795939154058,0.906896429486344,-0.0711613995989289,0.0310314617147113,0.0135333896625941,0.415205096611166,-0.749109902263003,0.500530417375974
255,758,0.350475852081401,7.2176084794791,0.908080089480081,-0.105970512023996,0.034454089207249,0.0383101946657385,0.0890674285462095,-1.09883111964071,1.0917407317937
256,759,0.34797554328288,7.21748477821205,0.909476247074997,-0.131380348003402,0.0313310367817885,0.0643407065132243,-0.138851644395249,-1.34725159019466,1.42261205338618
257,760,0.345991447029386,7.21753813374383,0.911027250308392,-0.144818611349749,0.0207549002404341,0.0863320421354243,-0.481874227923582,-1.27680522617017,1.34258862398039
258,761,0.344564955471423,7.21759208825204,0.912628956814668,-0.145382808143002,0.00567926062439504,0.0978611977908312,-0.752390025986931,-0.952063048892069,0.665457336957031
259,762,0.343625528297214,7.21760172225221,0.914207123074174,-0.142391586877603,-0.0104481094203923,0.103481961750659,-0.753894512182669,-1.04871516775659,0.107531801838955
260,763,0.343051749424023,7.21758164716286,0.915692693060727,-0.131600260017737,-0.0232992059909132,0.108265164958781,-0.346211849234979,-1.07999758680936,0.148707847775922
261,764,0.342758328903477,7.21755461761323,0.917070922950201,-0.115682119925919,-0.0333731968795048,0.107372565366975,-0.10158782001393,-0.940198461701448,-0.256162228895971
262,765,0.342641903258859,7.21760354398524,0.918293686969788,-0.0986195971480541,-0.0377691784268128,0.0998075925532914,-0.141866218770062,-0.85163245791586,-0.78698423456376
263,766,0.342576397264782,7.21777858958659,0.919326279298308,-0.0840509096719999,-0.0369566347340011,0.0886218754386596,-0.182163586815376,-0.816294676889881,-1.08452420320597
264,767,0.342472817538619,7.21809821816954,0.920156707765488,-0.0730955375603125,-0.0314124556408948,0.0744990329407594,-0.23480881929524,-0.668840877507279,-1.31915516192098
265,768,0.34229164125138,7.21861317421629,0.920794651775215,-0.0661469031635526,-0.020991446618569,0.0590756651525575,-0.267466733547474,-0.63099110060877,-1.49498942403138
266,769,0.342030911616111,7.21932759420173,0.921259700638386,-0.0632496013966515,-0.00788808932429744,0.0447689716712184,-0.161792019641681,-0.697228164000473,-1.47107294181317
267,770,0.341738748822678,7.22018367039819,0.921569290446203,-0.0615042955195268,0.00612771733490065,0.0300741225931884,-0.11152762246818,-0.596424703560542,-1.4923938477013
268,771,0.34146159612958,7.22116216934482,0.921749389208544,-0.06112508342885,0.0209566823369001,0.0173644529987016,-0.0671250212458413,-0.699850417558649,-1.35386294875784
269,772,0.341218410948372,7.22215238723872,0.921819275196741,-0.0618884829384278,0.0304929617850541,0.00574382329743612,0.0853925980369246,-0.612496258106746,-1.25499229541016
270,773,0.341025578893952,7.22308805681131,0.921791417144878,-0.062384281243975,0.0351820948219484,-0.00490833536343829,0.146663870971964,-0.715159960876307,-1.15339658602383
271,774,0.340872109847203,7.22387597131296,0.921671856887656,-0.0622116252002404,0.0344893471956503,-0.015118192924583,0.258124442095432,-0.690181197023725,-1.08850972187296
272,775,0.340773324311859,7.2244768313354,0.921457006149431,-0.0603161295377356,0.0309795232429293,-0.0259626988681307,0.221044727442838,-0.564145537147612,-1.09293796887125
273,776,0.340703999478851,7.22486012529726,0.921147317694541,-0.0577539403258064,0.024818034926641,-0.0357235139003767,0.259208776261137,-0.618975539836821,-1.01129855681545
274,777,0.340631988003857,7.22498039898964,0.920745597742886,-0.0551799803829279,0.0159373006522935,-0.0448979088568062,0.226656116975846,-0.630960560960012,-0.938719923852488
275,778,0.340514401097595,7.22483464936371,0.920262617125319,-0.0537387621714696,0.00639590903498492,-0.0529390471401621,0.14351081673798,-0.681961333680315,-0.847979805294925
276,779,0.340352528859473,7.22443807412829,0.919711063032191,-0.0520471827206224,-0.00451367955475151,-0.0609563651910165,0.0740495769462569,-0.515341930327296,-0.817788530577999
277,780,0.34009608836173,7.22381767827794,0.919086526658614,-0.0512179647583782,-0.0171560005441833,-0.0679725483571824,0.0353731399915647,-0.462922844995696,-0.745357221727615
278,781,0.339737385682186,7.22303062801004,0.918410715018004,-0.0495253962238148,-0.0316536447302583,-0.0735708083420851,0.17027075635449,-0.377141868305852,-0.624283812679545
279,782,0.339300554939722,7.22211215440353,0.917719093560734,-0.0457711844689022,-0.0476676137900908,-0.0720951121585891,0.225626405373892,-0.268459643880265,0.0346729978570988
280,783,0.338826092786323,7.22106206242113,0.917068507351201,-0.0507157603591055,-0.0614063803789523,-0.0694904765945038,-0.412376464945935,0.087041148941962,0.075881764339547
281,784,0.3383557684359,7.22000463178756,0.916334500967343,-0.0501217340077991,-0.076268211792448,-0.074577436276776,-0.190929691426318,-0.582592158843722,-0.518778465964085
282,785,0.33782333097173,7.21895137128096,0.915582372265459,-0.0532466296315049,-0.0818754849689971,-0.0576930082525775,0.0113812823519042,-0.589749047759313,1.81229445747752
283,786,0.33722118593684,7.21794045163426,0.914911759417609,-0.0544447836008162,-0.0783890696797725,-0.0453511069351852,0.460637764285218,-0.456258831912443,1.4474261602956
284,787,0.336464027995165,7.21707742907148,0.914253388815712,-0.0671743262408587,-0.0579417442563335,-0.0288488323425736,-0.363257981621281,-0.050001120081524,1.75830729982504
285,788,0.335617452135926,7.21644775462487,0.913591455996791,-0.084430807837514,-0.0304175336209717,-0.0204151715282238,-1.43588847035844,0.0826886474631275,1.18313567429277
286,789,0.334924863259211,7.21601991352187,0.912780795686569,-0.0797343450340563,-0.0180035108174003,-0.0199394987573115,-1.81741382966511,0.256020901791614,0.990196474172087
287,790,0.334419242031887,7.21561769370726,0.911855674671351,-0.0656247587854937,-0.0124612430215799,-0.0212727844274824,-0.969303333025646,0.340306358343937,0.982718835873025
288,791,0.333942840749833,7.21528814529561,0.910850244056104,-0.0650132631727939,-0.00191236359134948,-0.0124221498609436,-0.346489389838486,-0.020547033502937,1.7836869727386
289,792,0.33293392510006,7.2149157695106,0.910328945661941,-0.0699041066927797,-0.00128875883716926,0.00819025885863135,0.94541428582028,0.0726762830932617,2.27309824935983
290,793,0.335275704203663,7.2145116168378,0.909662971605604,0.0049123188386238,-0.034620527031677,0.00776216168204377,-0.0791100881160381,1.13086864526439,1.35708175702528
291,794,0.335580913420712,7.21350520416224,0.909140430643811,0.0398744689898383,-0.0788386143032352,0.00431917277465653,-1.29465190331216,0.389334500904582,0.691112670597039
292,795,0.336957711068931,7.21242738858462,0.908689980819175,0.0377946238529026,-0.115049028761489,0.00057288152387069,-2.09013175580579,-0.357221895228883,0.122014037307281
293,796,0.337091528035087,7.21093433572566,0.90842029449687,0.0117564581501462,-0.138369608075929,-0.00356458080142191,-1.61451425773935,-0.291191063565351,-0.310268860769464
294,797,0.336570382071651,7.20904121108724,0.90829531911813,-0.00611266237831495,-0.155181290386335,-0.00969582856061218,-0.877350609417234,0.458456826820915,-0.552546978154224
295,798,0.335227736534397,7.20720065609764,0.90785265075801,-0.0290824034442296,-0.158808699471814,-0.0134271213415721,-0.310694174479911,0.940590492191396,-0.45753226810381
296,799,0.333133416144298,7.20584142855415,0.907886985824117,-0.0560926166546288,-0.142956849249864,-0.00790391457600577,0.493898823317894,0.920174192352524,-0.0798838113347526
297,800,0.330895142306693,7.2054635368512,0.908215273714614,-0.0758235967414041,-0.107405427038891,0.0035903492707685,1.16668331840642,0.855113927982753,0.253064843694567
298,801,0.329398583336084,7.20586088450601,0.908836229970475,-0.0791849037020651,-0.0637331757468713,0.0156183264800717,1.24577867577856,0.862135546327519,0.337534456260613
299,802,0.328644371928294,7.20673851847569,0.909646214629968,-0.0709086887842603,-0.0264463065355946,0.034630824470111,1.31698309666158,0.596136751808637,0.838220012054648
300,803,0.328392533004204,7.20766805340996,0.910491928937187,-0.0552720030570025,-0.00534972193711808,0.0543653806778185,1.15122972612781,0.355172053669887,1.08541730638782
301,804,0.328337378155341,7.20847188954994,0.911464917803786,-0.0461683854452928,0.00377433174819138,0.0775123890241463,0.956903464904221,0.507974096945539,1.55165752145279
302,805,0.328228817654721,7.20913914936372,0.912638606799876,-0.0463583896386519,0.00757670311763552,0.101310363126823,0.982669900427204,0.459536523605173,1.60411389803926
303,806,0.327974248262832,7.20960908953422,0.913969269416723,-0.0485160453927732,0.00513918842835638,0.119805504673523,0.887279345579024,0.347651437666367,1.22483208908929
304,807,0.327544058427948,7.20974051429872,0.91539580603695,-0.0467412683912919,-0.00314271809184862,0.133533222324453,0.839082855155547,0.308844742933043,0.904034672445399
305,808,0.327020928441072,7.20946796138246,0.916851230186925,-0.038504588213066,-0.0146576374744655,0.141626145084569,0.911176678289889,0.271319234924308,0.583909609722652
306,809,0.32648093333442,7.20882455122562,0.918302268558473,-0.0289953662403244,-0.0230731258781741,0.145739985103454,0.951621029347953,0.535376518064113,0.271201852083169
307,810,0.326026318218635,7.20796556631768,0.91970710922447,-0.0191601271029342,-0.0296489081452504,0.144726971415647,0.803748230243939,0.489421821329284,-0.104472500441544
308,811,0.325648871631937,7.20701028927766,0.921029224029293,-0.0129768008084806,-0.0329656690308764,0.140292216812862,0.712092507518588,0.433398407617526,-0.362270884541305
309,812,0.325353170458584,7.20601255905092,0.922232596577223,-0.00916814826673365,-0.0357053050911797,0.130504942126228,0.522331142902304,0.409430211758038,-0.742095020758537
310,813,0.325153126529437,7.20499784002983,0.923281597092536,-0.00480094956071556,-0.040162391297316,0.115707404120978,0.366347270160017,0.395471362602879,-1.12098939911538
311,814,0.325059768264257,7.20397540860041,0.924152167971015,0.000929356585188667,-0.0470069978645581,0.0980773391143586,0.36708369381084,0.367617308881567,-1.3912050613936
312,815,0.325011835611825,7.20297042707718,0.924842849888961,0.00406550565602929,-0.0520134008748836,0.0800450376393267,0.595746708049863,0.304899027345364,-1.55457145904376
313,816,0.324969519271106,7.20202434698489,0.925351281408407,0.00583261058610651,-0.0543080861558885,0.0608302257092438,0.783389132824187,0.28686781217835,-1.73969380616672
314,817,0.324932336125745,7.20120932187203,0.925668916410839,0.0103432852524257,-0.0527480942897634,0.0400135239573104,0.870073752203697,0.197229533466825,-1.91428701136361
315,818,0.324874020284783,7.20057070067854,0.925795291045401,0.0158311297652957,-0.0489209666288201,0.0194180063420931,0.987195069119347,0.0350854872736318,-1.93912832293676
316,819,0.324806767835668,7.20012709937288,0.925731273881124,0.0226280837158022,-0.042518593469334,-0.00194412339316274,0.91635230124174,0.0820576301655051,-1.98026507974682
317,820,0.324737038403704,7.19999258845836,0.92546579764409,0.0290278945087384,-0.0348071335875908,-0.0227781384188244,0.786133140014038,0.00178290002096512,-1.89419147312446
318,821,0.324688955669547,7.19996919136955,0.925042811536365,0.0328064424902614,-0.0234035806979464,-0.0410110522677214,0.808264498363924,0.113055159710307,-1.69208129057745
319,822,0.324691280570725,7.20013759387649,0.924480918736256,0.0364260740417608,-0.0109350921639397,-0.0561990385208505,0.776602573884789,0.202944738155517,-1.39997288775416
320,823,0.324782064428739,7.20049161430697,0.923797820173665,0.0411312632083542,0.00125945100858825,-0.0695196620476145,0.68450896537726,-5.52485967931868e-05,-1.17607678665747
321,824,0.324949333167813,7.20098182655032,0.923019769106451,0.044147172207326,0.0134872855007249,-0.0792338407288755,0.593273928391904,0.093043799156148,-0.93230147515781
322,825,0.325229394156062,7.20154933994991,0.922154560068915,0.051522868564732,0.0219119393081856,-0.087508716799965,0.545499288577276,0.0657324063961718,-0.732209468442363
323,826,0.325618487548007,7.20216253468575,0.92122081405294,0.0582796601636912,0.0276522407771083,-0.0926478528940249,0.298740175588886,-0.0881239217361935,-0.459585044240035
324,827,0.326101681041399,7.20280777467232,0.920224939458413,0.0637329926867739,0.0323037031638983,-0.0976442786012201,-0.0674883462683775,-0.0199219412241547,-0.390322717691428
325,828,0.326598752162347,7.20355364102564,0.919180836248566,0.0638591189778265,0.0421112559366728,-0.100526015703468,-0.178954734885253,0.0716703051507116,-0.251483285369976
326,829,0.32707428856168,7.20440439119687,0.918099603978807,0.0610321794648695,0.0532491007888012,-0.102577253706311,-0.184949981961308,0.303491159349808,-0.164222369600466
327,830,0.327532347590849,7.20534621760291,0.917001789460989,0.0573110562789617,0.0642367063123643,-0.103325436170704,-0.170166254680084,0.496805577124116,-0.0139951352026558
328,831,0.32795124255712,7.20637125096908,0.915917026462496,0.0498774788904405,0.0757253509921436,-0.101025235260507,0.0888784334303462,0.613571239069009,0.186172718775711
329,832,0.328343044550401,7.20743903639688,0.914867212334461,0.0427007572161625,0.0860684204559685,-0.095975098356082,0.404718185622441,0.598282130223814,0.397794242136341
330,833,0.328776012413663,7.20848251739441,0.913865183003212,0.0412602447040489,0.0924556672647268,-0.0906866425219628,0.718195295569493,0.528134942523353,0.473198171966518
331,834,0.329292407082088,7.20944615034362,0.913024493341673,0.0442788642997472,0.0967167264492556,-0.0680458970869164,0.894796913716306,0.436885656650401,1.98432056362238
332,835,0.330048935607303,7.2102135367871,0.912279198963951,0.0545149923712173,0.0947901845448942,-0.0811026059515742,0.434722116040906,0.460994696003366,-1.30808086781639
333,836,0.330776218635078,7.21079179561352,0.911486461397266,0.060485921096441,0.0918058303919921,-0.0572548366497239,0.564653216301807,0.801762621583434,2.53521183512933
334,837,0.331626552518477,7.21129596766173,0.910909161926787,0.066034806184101,0.0881922754721945,-0.0428281431725199,0.298433899430569,0.437688667862259,1.6642851949075
335,838,0.332464017628437,7.21175494745741,0.910448093429974,0.0668399208868631,0.0740795281078212,-0.0153479226511958,-0.137973606197007,-0.329441698022195,2.94493499062539
336,839,0.333286001242151,7.21210117581856,0.910143690119858,0.0685401873748548,0.0561871539474742,0.00609788362606061,-0.172350748637177,-0.374121431843603,2.3682544244723
337,840,0.33411084263727,7.21227108681383,0.910042128023937,0.0716445350327387,0.0338536077010678,0.0225565383112906,-0.801146256942771,0.101735052618583,2.0341226899193
338,841,0.33521570021195,7.21245995042506,0.910097998549003,0.0790486614077518,0.0223804854753866,0.0386909912166853,-0.613380040454487,0.623509624742503,2.10143902638675
339,842,0.336317694672361,7.21234164417569,0.910157406110462,0.0857883242267715,0.0106994289046702,0.0510455330014914,-0.499892813131793,0.708810294794831,2.08892661803064
340,843,0.337805349700051,7.21223476590616,0.910172980775402,0.101365522915073,0.00245657357104365,0.0615436370884737,-0.430851629365773,1.12442654393237,2.02983311660259
341,844,0.339733995957215,7.21225545868658,0.910276223902604,0.119030583985974,-0.0058387533570302,0.07010582961422,-0.814774489885786,0.980106751705262,1.68588285193591
342,845,0.341493861985553,7.21305229715242,0.910302264111202,0.128236916563402,-0.008635105336737,0.0634951787534339,-1.29153382014129,0.452750815398264,0.307956356090958
343,846,0.343246809467734,7.21289234387123,0.910220302515934,0.131988330666709,-0.00805543753014019,0.0446576998085755,-1.32349110542165,0.43340913577638,-0.928976015148234
344,847,0.344874738840649,7.21286039503586,0.909970837025978,0.143376044488284,-0.00119117271948692,0.0189569057252169,-0.830639948752473,0.513132713074203,-1.59227199697744
345,848,0.346596049027439,7.21272934180499,0.909521069021973,0.157413180230262,0.00553024311773139,-0.00818672895323809,-0.77270317966201,1.07503692862566,-1.85140763441617
346,849,0.348336974455446,7.21280711973805,0.908955765610699,0.160776603202759,0.0127082002605773,-0.0327349529677937,-0.685420602355089,0.675039976686743,-1.99152727352214
347,850,0.350016291250366,7.2134075727214,0.908377375032842,0.158032410509001,0.0265096259665202,-0.053607578095795,0.0244555209001639,0.0747532993314854,-1.99068476306631
348,851,0.351176594116206,7.21460707118314,0.907810863572425,0.147330433884184,0.0457060655018852,-0.0710551245053144,0.281001772881333,-0.540962081485257,-1.91630769109277
349,852,0.35207417019485,7.21630058084015,0.907212210217819,0.131326118879888,0.0664358745980392,-0.0828161332824691,-3.63233222706693e-05,-0.819378507151421,-1.54930138897416
350,853,0.352527103977667,7.21819432199072,0.906717744840686,0.110655149778882,0.0871824267225903,-0.0834975841839321,-0.161494518291765,-0.882532958836395,-0.716081847243798
351,854,0.351950889794539,7.2195717094828,0.90658647978394,0.0765663526749407,0.0965199669218966,-0.0678814239325194,0.313537391554011,-0.809783039552336,0.588936923707503
352,855,0.350377287417391,7.2200787962837,0.906897079443268,0.0329284440258498,0.0910987163857143,-0.0401656750765094,0.807282308247683,-0.936767087101487,1.47577305866166
353,856,0.348228037502516,7.21979408373735,0.907621508012882,-0.015220876463381,0.0722742414040452,-0.012646190655687,0.580665413840254,-1.01360312531885,1.39567100378341
354,857,0.346079766683396,7.21900572958829,0.908637582263554,-0.0595428039137691,0.0460507470852091,0.0161677104598881,0.141493553544272,-1.12391964625029,1.55946581201163
355,858,0.344126682616217,7.21783780505832,0.909899140184729,-0.096896871501012,0.0164876087223668,0.043738474473094,-0.125285907214782,-1.22150978398637,1.48632479441507
356,859,0.34255269984515,7.21647674720464,0.911316428807179,-0.118554040185896,-0.0121690290658193,0.0634474213797839,-0.398865269552174,-0.985049604789904,0.949378915929474
357,860,0.341422935495069,7.21516971774426,0.912756623265708,-0.123141466011707,-0.0304302950045494,0.0726437711239192,-0.422403873788763,-0.534492337101899,0.128672221928539
358,861,0.340825495264741,7.2141560470232,0.914136117447446,-0.113187113782322,-0.0394744115223496,0.0736514299317285,-0.525446627118047,-0.424641325185167,-0.536341480647389
359,862,0.34063476149378,7.21360752885964,0.915413392687537,-0.0948729445381333,-0.0437688619383726,0.083877062160317,-0.164741142038969,-1.12138092163587,0.372968902714454
360,863,0.340733270478791,7.21335973745266,0.916654729794226,-0.0736728187911935,-0.0472059615274116,0.0918279095919039,0.0610136568802762,-1.26029671752008,0.314914334125763
361,864,0.341029077337319,7.21330803543288,0.917829509541245,-0.0535618922911601,-0.0507659699763384,0.0942714008759843,-0.0340550560469819,-1.25611200529801,0.00371381666276093
362,865,0.341421984133972,7.21334653967745,0.918897191875857,-0.0354293292648945,-0.0530409194470344,0.0926793422099231,0.151474537011139,-0.988769619998487,-0.242011308860025
363,866,0.341870152343426,7.21343403835156,0.919829592816051,-0.0184025321800898,-0.0528199524111109,0.0860631790361286,0.290484211136784,-0.772642302268121,-0.59543627137878
364,867,0.3423529286907,7.21355952344496,0.920607041883813,-0.00619054097682249,-0.0501769421136429,0.0761764448872044,0.173251011132279,-0.583733376841126,-0.855060308778805
365,868,0.342827507341622,7.21374168052939,0.921225441451628,-0.000684145963553806,-0.0443024787492227,0.0642847545607343,-0.0247090399798993,-0.522411701101635,-1.07419950020396
366,869,0.343278151369126,7.21399129056178,0.921680718053008,0.000914255164519103,-0.0370177223669991,0.0500867502143201,-0.152628721962748,-0.595550309320163,-1.30663008764692
367,870,0.343723346539425,7.21433574292301,0.921971558837847,0.00294414648250442,-0.0278407094865685,0.0360750166892379,-0.0687446747693827,-0.5732116617324,-1.30015532195312
368,871,0.344204940997968,7.21475579837708,0.922106733583435,0.0062695279160322,-0.0196123496278712,0.0212270428444763,-0.0820597321305148,-0.532909331608582,-1.34828861752656
369,872,0.344707306966993,7.21522621569208,0.922096855815508,0.00804397877617921,-0.0124109431714174,0.0066308129512207,-0.00181927679195573,-0.525160860094329,-1.37821856691376
370,873,0.345208951004566,7.2157141191893,0.921949081285716,0.00851911160250839,-0.00696841381602555,-0.00841982754589524,-0.0278456223352642,-0.531361086858841,-1.42645935475763
371,874,0.345712803131872,7.21617872035341,0.921666094237645,0.00881068537648229,-0.00357148264440234,-0.0241470587580346,-0.100825869922933,-0.498925285060098,-1.46344597890991
372,875,0.346195271142089,7.21659305447539,0.921265637337949,0.00696023012206007,-0.00196574725497908,-0.0376650030420174,-0.0271768526630649,-0.61612146108636,-1.33910664593525
373,876,0.346643103737934,7.21696078531367,0.920769303562609,0.00664929867830419,0.000576107636379587,-0.0489405316538437,0.127692209344444,-0.607215590951669,-1.15368360514096
374,877,0.347056376891592,7.21724312175814,0.920194925753152,0.00738451832880179,-0.000464667810322162,-0.0584510387163515,0.237434297901252,-0.583310219319638,-0.98399775515683
375,878,0.347453710996425,7.21741415237507,0.919554667181903,0.00928874308317616,-0.00299878125378669,-0.0669180519026562,0.2622216119894,-0.576611311707005,-0.888225813666057
376,879,0.3478484368666,7.21745043010295,0.918858436260005,0.0117060645359134,-0.00760607754486452,-0.0738938903807761,0.283559779104379,-0.470928005096015,-0.763409843036086
377,880,0.348270568992672,7.21736712086961,0.918122731884171,0.0131264628167484,-0.0139206907160986,-0.0789723746606604,0.163521769987366,-0.366241874887508,-0.600289652511931
378,881,0.348700673313994,7.2171696691495,0.917358754272844,0.0150947133458565,-0.0213207953078185,-0.0817315960900534,0.165486814128202,-0.331155615017125,-0.372142083305897
379,882,0.34909456598847,7.21688016219355,0.916627611529448,0.0157158929554451,-0.0292298036568641,-0.0739956140158358,0.0341385812813915,-0.269962396760092,0.582833524035426
380,883,0.349478651221186,7.21648097071781,0.91600417280257,0.00768658647006819,-0.0337211326247238,-0.0663898421993652,-0.851339251368095,0.0354312134433872,0.474181572870567
381,884,0.349791868626762,7.21608662732521,0.915356941466625,0.00340363860807065,-0.0412230839663482,-0.0605590843725618,-0.643297403855447,-0.780546828088142,0.475996904814034
382,885,0.349947574728317,7.21565475151294,0.91483207480554,-0.00422766386178382,-0.0387232710058787,-0.023789872915985,-0.289674475793282,-0.452064664439619,3.73814336984144
383,886,0.350037308516233,7.21518135433515,0.914534667268953,0.00200124776379894,-0.0315579361753872,0.00192341810905233,0.626816649717865,-0.212609283859635,2.83142716810716
384,887,0.350114811585759,7.21482596959591,0.914311359359832,0.00863550398068284,-0.00976269260830132,0.020559341081626,-0.0655975661989408,0.374220822395308,2.1770177399556
385,888,0.350151913584367,7.21477437377309,0.914096619349831,0.00238712936177063,0.0166082554936927,0.0242965234065155,-1.33160538085403,0.098176152634939,0.922010595943924
386,889,0.350211756568323,7.21495883420986,0.913749437881302,0.00222900642155288,0.032217092477614,0.0224450299049692,-1.92093920920527,-0.0553754230196081,0.74211061921851
387,890,0.350416655347285,7.21510942785767,0.913227083872652,0.0239213601757571,0.0324745216996136,0.0140950911118276,-0.641477361603742,0.195082652888198,0.451160373275733
388,891,0.350946274089212,7.21512457675789,0.912686605990995,0.0464861449148023,0.0224176972598151,0.00269121274016328,-0.876346560829907,0.546733432902469,0.162715794663177
389,892,0.351690558834157,7.21501875450896,0.912037741709374,0.0524783339139556,0.0165026889289343,0.00252268470139696,-0.337926746763832,0.330014677200127,0.772262152310714
390,893,0.352452126192149,7.21432982828559,0.911707636530447,0.0675124753616224,-0.0102066226462961,0.00620668492884499,-0.283025186744004,0.84727717740566,0.934597184153068
391,894,0.355300043838495,7.21380115066635,0.910617302473755,0.103967186801932,-0.0480131159184076,-0.00118289560734717,-1.32205901455851,1.17856079102939,0.636450730722346
392,895,0.355799239924582,7.21249303444621,0.910408749022864,0.0836722836289624,-0.0809291881587319,0.00167061860287745,-1.44289717111317,0.259757014007753,0.47602680603825
393,896,0.356222846548734,7.21099339463264,0.910350587057229,0.0510276333248036,-0.106810355590619,0.00275432742621543,-0.855412599678557,-0.190940712136702,-0.0541411241509908
394,897,0.355904498222878,7.20920398971364,0.91038365750338,0.0274400961588572,-0.126317515023586,-0.00453908262552634,-0.629467613838326,0.0346622655941974,-0.789058714198491
395,898,0.354877630434494,7.20738834392522,0.910444147497795,0.00549863717559344,-0.1338336994618,-0.014002390625785,-0.240481252848096,0.812558293079421,-1.23658235145884
396,899,0.353259678686434,7.20608412637119,0.910601204633552,-0.0194799904833373,-0.118368371473642,-0.0170770212742567,0.257142905021298,0.927239229825245,-0.989712716561974
397,900,0.35148125596889,7.20566381615519,0.910914650331157,-0.0394034062682447,-0.0847490282489674,-0.0128172005209379,0.837084295237853,0.748839405925389,-0.49859305598769
398,901,0.350126065298165,7.20616054709869,0.911391341455686,-0.0476924228201427,-0.0421131352298816,-0.00682863212741045,0.886227632198978,0.525166442129299,-0.373821442136724
399,902,0.34941686282987,7.20721425458275,0.911945097631188,-0.0429205907973512,-0.00494581053930327,0.010348671027425,0.980289231727981,0.356287580314223,0.717529121192618
400,903,0.349104725598123,7.20846999744045,0.91266700179727,-0.0330128498343763,0.0219726639215169,0.0404025643778096,1.41868798249548,0.205050276418265,1.98047202130086
401,904,0.348968953956527,7.20970718278988,0.9135863829347,-0.0297618807013855,0.036845417837071,0.0724635596348337,1.30786578514533,-0.0404406445861356,2.28550658108226
402,905,0.348909279252077,7.21075843769054,0.914746494692159,-0.0290365883270797,0.0396183886518138,0.0965775259487236,0.922437491879934,0.16435324268837,1.68885897258014
403,906,0.348843147627158,7.21145628215715,0.916016725877092,-0.0259258001407398,0.0317055435257754,0.108597612396869,0.524922992208592,0.283553952089524,0.781366888502525
404,907,0.348775709981018,7.21176522892825,0.917256626257151,-0.022254446888808,0.0203406077231835,0.115390497924838,0.308466377176866,0.41945098391263,0.387797049571643
405,908,0.348691204996801,7.2116148980568,0.918520294214019,-0.0106967069937427,0.0109560440785184,0.117590453218473,0.756222029248394,0.516168750996269,0.0936206039533013
406,909,0.348686362733897,7.21112026212097,0.919714646040008,0.00166333477332659,0.00246997761312611,0.117452459256385,0.610167509574929,0.665112388647225,-0.061659738108662
407,910,0.348796140071543,7.2103836885228,0.920815731192094,0.0158262573409803,-0.00486117329944903,0.114207855925328,0.713345732088059,0.859220312025369,-0.255394904284071
408,911,0.349014068372267,7.20951553423333,0.921812515441263,0.0242892744861563,-0.0110575304353888,0.10908080120253,0.649855189349961,0.82784608115426,-0.424281557723938
409,912,0.349282267665425,7.20860797338105,0.922698987679611,0.025562132590208,-0.0144156425865208,0.101752276595267,0.572426032915852,0.555757331912669,-0.685830322178907
410,913,0.349608464617068,7.20772380658447,0.923441445757458,0.0276894214409125,-0.0181499643655111,0.0887813018390639,0.393433886798571,0.338741181404108,-1.11604628703942
411,914,0.349978460027589,7.20687695882847,0.924009855194344,0.0304660104378879,-0.0232926031090012,0.0720234219866671,0.32193492252979,0.319697483125671,-1.44291274229631
412,915,0.350353003076918,7.20613123088681,0.924396453560982,0.0326256538636758,-0.0252291737253539,0.0535738696800004,0.452015492657549,0.238223759430327,-1.66841091668708
413,916,0.350701841381664,7.20552108212177,0.924602538484185,0.0341314342608297,-0.0274404226071927,0.0347494034193022,0.639270228549713,0.123558727631217,-1.74458745957344
414,917,0.351019645468837,7.20508140761625,0.924632987487764,0.0367049829382578,-0.0282615327378947,0.0155084670133062,0.816214889325158,0.0855597370828079,-1.79295140695212
415,918,0.351337221529703,7.20486575243572,0.924488723177675,0.0430369661202983,-0.025631405439439,-0.00419215587798601,0.933725535797243,0.0419020886338945,-1.78360262327811
416,919,0.351640739495562,7.20501234201122,0.924166558870455,0.0497518110608474,-0.0180287458660662,-0.0234910972032628,0.959771329028529,0.0493321951189608,-1.72728356690155
417,920,0.351952375444881,7.20537621996943,0.923689970014293,0.0538678235048329,-0.00700840387042748,-0.0423311353241333,0.852516599556479,-0.089332045180384,-1.68679358042944
418,921,0.352280607260143,7.20597719222743,0.923054886717404,0.0580407017632699,0.00694354588809257,-0.0610610172041695,0.798440292006525,0.0572164199397691,-1.65723284568308
419,922,0.352646659755671,7.20677686403784,0.922263766321367,0.0628265419266913,0.0236826623735808,-0.0783401300429531,0.831356627166249,0.257727922985883,-1.51778236743701
420,923,0.353082765397242,7.20779112652918,0.921322247163018,0.0683967087373001,0.041075951126101,-0.0935477944174126,0.645742854707316,0.32315583651022,-1.31170228860174
421,924,0.35358212762408,7.20889563767343,0.920263873581386,0.0765246348456894,0.055696960802905,-0.104523810665356,0.868911725477846,0.259180612578614,-0.947930805169645
422,925,0.354108408120451,7.21007005971304,0.919115400444256,0.0815221772235067,0.0680389132295906,-0.112053737739829,0.538521570905941,0.0683014676418335,-0.656188471168989
423,926,0.354621429712245,7.21125955783246,0.917897328289304,0.0845363265158991,0.0788084325201966,-0.118053513218748,0.38646296021725,0.0270881086474458,-0.549759163128416
424,927,0.355099772419587,7.21251561552819,0.916609401787156,0.0814562358575675,0.0920892359944772,-0.125286101088057,-0.00800807375425835,0.0644481809771202,-0.675129129994731
425,928,0.355506921947032,7.21392947088198,0.915251425115017,0.0717249119965606,0.111141684138132,-0.134273495801882,-0.389903662352865,0.398424414366803,-0.850969055678202
426,929,0.355830863487668,7.21547969747319,0.913820967353103,0.0565689712446819,0.12971582265773,-0.143055315043348,-0.530252645344655,0.459988558732184,-0.905325405799186
427,930,0.356171328170681,7.21705848861854,0.912303585049456,0.047844214546826,0.145175605376857,-0.151184043540703,-0.104122347559042,0.602443594389231,-0.780416726626985
428,931,0.356746914246625,7.21859165700026,0.910830146129237,0.04590341550927,0.153521508720698,-0.1414408312308,0.158659570455357,0.313395450415037,0.671727996147929
429,932,0.357804635840103,7.21993034775081,0.909411403500385,0.0596966653437239,0.155663073312926,-0.16413002800369,-0.798231025862854,1.43385075273966,-2.08424121897125
430,933,0.358939627773274,7.22118307429072,0.908019800427301,0.0590763459520204,0.158215684396479,-0.112354092227802,-0.281707813909034,1.68852747695337,5.35416792632116
431,934,0.360523399434273,7.2223691223022,0.907186727063908,0.0794958471529541,0.139518832753241,-0.0600428321407988,0.641078581129664,0.191099279862366,5.52033366074089
432,935,0.362300739990854,7.22336739717458,0.906759885124018,0.0899883608450711,0.0885900355600882,0.00208288512612972,-0.76125521163108,-1.81383161582731,6.23465496996141
433,936,0.363904222775446,7.22382963475265,0.906790527633128,0.0758846208745847,0.039287220494837,0.0457185649953675,-1.56251672883918,-0.517258415060426,4.52557299577077
434,937,0.365110349243659,7.22385835048996,0.907050367311421,0.0479940684781049,0.00558481111043175,0.0774559102031287,-1.2480093809817,0.484710060022402,3.6686444359584
435,938,0.366457972158293,7.22379531285984,0.90733359393948,0.0514743684787185,-0.00273221753295697,0.0837374157118902,-1.01279767044578,0.683998699959739,1.71376644660767
436,939,0.366586123671356,7.22274212579439,0.907342464472187,0.0668620560741484,-0.00911767914216689,0.0616004189026318,-1.17530699757411,1.20661540635566,-0.456551874653346
437,940,0.36787808957358,7.2223271687442,0.907206873567579,0.104730992348712,-0.00165997500971892,0.0356059629082676,-0.819703618615908,1.34712508711947,-1.14035483246651
438,941,0.369736669373756,7.22205897788229,0.906894707689347,0.145987085057367,0.000599049092981044,0.0140843852183768,-0.840576803497273,1.87458093881518,-0.79395119437164
439,942,0.372021292625008,7.22219251546162,0.906477064641096,0.178247357047251,-0.00105061849977592,-0.0037834176541267,-0.623154185989154,1.17125305935373,-0.682889341754393
440,943,0.374453814598856,7.22277559321205,0.906067307504722,0.194080049340636,0.000797449673658962,-0.0185602531904792,-0.143636883248333,0.0650143583268537,-0.825244362921317
441,944,0.376642426387967,7.22372075023769,0.905600033529088,0.186557909051693,0.00666016238186417,-0.0305023783728169,-0.108890741138703,-0.544323227221181,-1.0907623255218
442,945,0.37825765448056,7.22483970678781,0.90518110695603,0.163813079517412,0.0162034638769443,-0.0415086621705831,-0.248605876444485,-0.803659053664914,-1.29057505510753
443,946,0.379204632206392,7.22603735041766,0.904914665107679,0.130459483782066,0.0283863557487696,-0.0476529979437603,-0.105376122972428,-0.66019527360404,-1.18790639127983
444,947,0.377760608180742,7.22604994747994,0.904925104721224,0.0730139110137947,0.0309025237745692,-0.0462829708293563,0.18565767407333,-0.689449192777654,-0.853037570435359
445,948,0.375934600513768,7.22585920348114,0.905238647046373,0.0172376006790377,0.0299873329682645,-0.0347734385019184,0.315834838897482,-0.976944756479234,-0.13999118313853
446,949,0.372898523316137,7.22487521730665,0.905931665590869,-0.0407436464798479,0.0169515014830343,-0.0170870324920044,0.261605469014696,-0.92021991322163,0.350206620151507
447,950,0.369792424638249,7.22387724167468,0.906902918905885,-0.0912895543860496,0.00466473025668959,0.00418213120335776,0.0801594655768527,-1.08041821582472,0.637410311936253
448,951,0.366748249333587,7.22299189717799,0.908097445271196,-0.134033568025293,-0.00401815094028223,0.0317147214158188,-0.0509002052513818,-1.4740597622902,1.22860479937991
449,952,0.364228866669415,7.22235371048684,0.909514214018287,-0.162520138915851,-0.0124205632851673,0.0606021502577686,-0.355057340209458,-1.63067857370768,1.54111337757394
450,953,0.362348933870947,7.22185230731421,0.911081639385178,-0.172734024327543,-0.0215929032405657,0.0834524336059894,-0.660443437078645,-1.39093914979377,1.29675837191641
451,954,0.361138041166254,7.22144353989778,0.912711041488118,-0.170914987590004,-0.0304813850288814,0.0938609466823409,-0.840194252315445,-0.964391495033622,0.315067969422261
452,955,0.360476921911527,7.22119107422405,0.91427914195511,-0.158152571968861,-0.0403893031695526,0.100392938453998,-0.872197028253526,-1.2386323636242,0.145144288815519
453,956,0.360211782410126,7.22104304860271,0.915771494738778,-0.136361781331358,-0.0473485613705787,0.105024700276095,-0.348493796066317,-1.02419782533291,0.0488822291480663
454,957,0.360214025614707,7.22102412207634,0.917164482102331,-0.111235661847153,-0.0499053688419905,0.105424984427734,-0.148669938735369,-0.837775447934681,-0.195912653593895
455,958,0.360375130187514,7.22114477692739,0.918432754087107,-0.0886222816488845,-0.0510721093325639,0.10314528370475,-0.166360110013295,-0.983047693701703,-0.35383815450145
456,959,0.360601726671931,7.22135055498838,0.919555415711626,-0.0684152219663749,-0.0504366205463724,0.0975591878289952,-0.134922999326566,-1.01637664683209,-0.550501558026605
457,960,0.360870653609461,7.2216642730434,0.920531336114059,-0.0514422456973421,-0.0463287016154749,0.0901639243421792,-0.0594554468833732,-0.974162591724093,-0.709809982426462
458,961,0.361142249399924,7.22199211520412,0.921354219731448,-0.036968947592375,-0.0397017587971282,0.0813141165123113,0.0983774296635946,-0.794583058963048,-0.839381553913296
459,962,0.361365104960763,7.22236056663941,0.922033600193526,-0.0281214361322902,-0.0311748458002487,0.0711987873214641,0.165130320351539,-0.638381475693869,-0.988386489821572
460,963,0.361561876378851,7.22281571925973,0.922571849262939,-0.0230238017392019,-0.0201367303740003,0.0598731096696704,0.195504766312437,-0.553621160752052,-1.12737935067921
461,964,0.361768441424366,7.22334916918564,0.922962950706119,-0.0184484707920511,-0.0110717514667008,0.0468783858758464,0.234753029206448,-0.540843189025822,-1.24379024185348
462,965,0.362019146967254,7.22391798414968,0.923198339411783,-0.0137067770502179,-0.00385533691842441,0.0326310344334643,0.158428282722542,-0.466730400612611,-1.29980745270484
463,966,0.362307239265473,7.22450865931041,0.923286056886762,-0.0108463917562999,0.00182719129350342,0.01815127152242,0.182378796825765,-0.569565005812258,-1.3678556095316
464,967,0.362593117603925,7.22506100575146,0.923232667812733,-0.0123236371581042,0.00385438508580012,0.00408079813024939,0.091499615604096,-0.650451343654703,-1.37278015613414
465,968,0.362869925458084,7.22551177006253,0.923037275686697,-0.014230548036593,0.00251576276276208,-0.0111325356012439,0.0456597440499797,-0.726035800006834,-1.44997417018965
466,969,0.363134339708808,7.22580888519471,0.922698698297083,-0.015777572473891,-0.00140534777814958,-0.0270908550018585,0.0752496440103195,-0.726094635976445,-1.51030555244032
467,970,0.363393169496635,7.22594941526399,0.922221713133367,-0.0166503915381025,-0.00522982160956015,-0.0428634200965031,0.107705498002596,-0.748318989493707,-1.50617277939512
468,971,0.363626352349229,7.22592917140882,0.921615134550411,-0.0162228570115639,-0.00850267031143733,-0.0578861007951074,0.193415929163206,-0.737665555549472,-1.44870765585226
469,972,0.363803917952751,7.2257794199529,0.920897464702916,-0.0158352802873087,-0.0115316317352466,-0.0716243956549956,0.247452283520567,-0.728593656406691,-1.35683272487365
470,973,0.363888565220961,7.22548625874645,0.920079797058558,-0.0150735869487418,-0.0165767129300232,-0.0846240107028714,0.264376075443023,-0.646912167110495,-1.26274900553439
471,974,0.363835874906481,7.22508640094255,0.919183243123327,-0.0148758871725041,-0.0224247772052974,-0.0958383519717779,0.296547040067396,-0.65530841167206,-1.13661388946144
472,975,0.363639986811178,7.22459975701307,0.918235092233755,-0.0167364426510079,-0.0304232956879506,-0.103783205733449,0.320043614658085,-0.621954581449766,-0.909227481694934
473,976,0.363333288320081,7.22404981482423,0.91725895151358,-0.0189340028272062,-0.0412377329747348,-0.108743947941677,0.327305580133545,-0.511429262369994,-0.661197747296942
474,977,0.362962258640611,7.22343485506787,0.916287429311851,-0.0211332118346911,-0.0545553796541448,-0.110270987137166,0.327741776664871,-0.430849641735008,-0.346650292504819
475,978,0.362498331039958,7.2227547009589,0.91542124824636,-0.0272940471264261,-0.0701774577835442,-0.0897406811237271,0.0633208018572442,-0.424930163067748,1.65619168907385
476,979,0.362135090692688,7.22193886980707,0.914648218788598,-0.0362702179324801,-0.0814996382156069,-0.0990008720715882,-0.71229859499984,-0.0459707752528991,-1.12695333193669
477,980,0.361636299671563,7.22114196374722,0.913799890825455,-0.0392983987179784,-0.092311599270229,-0.0696016214910502,0.0543111278923148,-1.27839294479435,3.01923805969828
478,981,0.361136138860625,7.2202680553504,0.913218252670469,-0.0391412891745005,-0.0844071871283727,-0.0385955893300316,0.583305017917536,-0.165208122508987,3.2675116447091
479,982,0.360600073061623,7.21946033623301,0.912803715238206,-0.0311882319831573,-0.0634596573595466,-0.00335478998822137,0.637431392568424,0.148554474347363,3.61725887296512
480,983,0.359331221489496,7.21870925544012,0.912457190348385,-0.0555069730208121,-0.0268506137481935,0.019794371693098,-0.756844786161126,0.923061148106126,2.75987955699973
481,984,0.358895298587576,7.21846275580944,0.91217836972748,-0.0683354221412825,0.000337654719513159,0.0316436356914081,-1.38144731830295,-0.173914780296163,2.00748504673902
482,985,0.357054814189015,7.21783651076062,0.911756241225984,-0.0656303254146198,-0.0115999394405177,0.03132391265268,-0.914816738835781,0.0363384624947994,1.40047330372596
483,986,0.355955878957656,7.21711042782716,0.91126577817454,-0.0546173082186066,-0.0366962653628041,0.0203029475623474,-0.882432137866315,0.523574627481861,0.309351925032512
484,987,0.35511360145,7.21618401344873,0.910652967708815,-0.0555577368363641,-0.0678768440687993,0.00797815598472162,-1.20038124163394,0.638588208698302,-0.139948421144962
485,988,0.354764885258055,7.21502059552711,0.910047997275037,-0.0530165243275703,-0.0996543350754648,-0.00109742871889867,-1.57663766481498,0.535427329219791,-0.0522883808266021
486,989,0.354499079077712,7.21354900790205,0.909577748024608,-0.054116147299345,-0.122343095093463,0.00404550577664779,-1.35158870676207,0.564608595500168,0.991180226281983
487,990,0.354393536675215,7.2117735565257,0.909471765606453,-0.0627226856773318,-0.142412018380688,0.0245238901883762,-1.10207248539219,0.164060957838121,2.06790054916532
488,991,0.354302015445998,7.20967069338904,0.909690789983179,-0.0671070783099942,-0.166228564565483,0.0408306860444757,-0.980324408323494,-0.0225842515561029,1.64450664524169
489,992,0.354194524020075,7.20727883860838,0.910065118353307,-0.0650809818586691,-0.183729800792875,0.0444689740855488,-0.753878751990788,0.242000067440419,0.488479684100768
490,993,0.353528480732342,7.20509028703686,0.910275404229402,-0.0588042772346466,-0.188454356139467,0.0364352472903709,-0.333777851755135,0.735913815878794,-0.661398770723795
491,994,0.352665953073075,7.20312691812874,0.910632733212586,-0.053574882475538,-0.179458144062836,0.0234020586840145,0.0961163118119442,1.20959091980335,-1.45548983836813
492,995,0.3510807705556,7.2019851020325,0.911045459049055,-0.0587046003273567,-0.154462838605262,0.011056340842747,0.521478215223239,1.30979891024214,-1.68214795154203
493,996,0.349174192688535,7.20174137119598,0.911573303506815,-0.0689785608842149,-0.117614935786887,0.00621916800714911,1.05062754972122,0.906210503638148,-1.25773190987167
494,997,0.347396088718417,7.20207476906385,0.9122296050947,-0.0786114381967424,-0.0817704022446828,0.00924766377296564,1.27283346070954,0.322621155735886,-0.72970483815728
495,998,0.345972123592238,7.20255737951946,0.912978891548395,-0.0836132659359835,-0.0548073742935569,0.0221344932554772,1.31777940175927,0.289645945661926,0.186671535110214
496,999,0.344762036811745,7.20308438176587,0.913891803508045,-0.0907418373204563,-0.0347792737960671,0.0472278751006667,1.38332579064009,0.226537594014391,1.2964648830296
497,1000,0.343735957250031,7.20352433896347,0.915019814615909,-0.100651245827776,-0.0197457041293084,0.0744758070952124,1.10547598383678,0.0917082891816514,1.64324874744256
498,1001,0.342800822699855,7.2037325100701,0.916315282442691,-0.107740988712359,-0.0134624957502265,0.0952782657727244,0.734641833427425,0.201427998771051,1.22604126347394
499,1002,0.341920754108797,7.20359692121977,0.917658283696127,-0.108390179897533,-0.0181760069788219,0.105823941377418,0.337019358414033,0.320016473009301,0.548366230155269
500,1003,0.341121637657169,7.20309693807042,0.91895366689295,-0.0998916663372253,-0.0265562340368964,0.107485819483886,0.156675419923774,0.435419976220425,-0.0295146616505084
501,1004,0.340448205520761,7.20227482278199,0.920157958882165,-0.0866866303659186,-0.0357151208872989,0.107070605143268,0.255243713676235,0.556091464340633,-0.095628233600001
502,1005,0.339952794980831,7.2012177657959,0.921270816126078,-0.0692546328822019,-0.0438184952541747,0.107205098931211,0.397922942592314,0.658221170970473,0.0478807017623019
503,1006,0.339647566372652,7.20003861623448,0.922315169720487,-0.0531906589927766,-0.0499405015966018,0.107541831672291,0.498035997974873,0.541237599120243,0.0653356484744757
504,1007,0.339504391520328,7.19880526847109,0.923293931710246,-0.0396121272030705,-0.0551283727365829,0.107754859848383,0.555107774392191,0.393270576516754,0.0444895808961953
505,1008,0.339518764304378,7.19754880300268,0.924194775795451,-0.027482903316697,-0.0628040864595259,0.104941343024152,0.528685045120462,0.25901002343639,-0.172312989190916
506,1009,0.339697376315039,7.19629497228422,0.924982594978638,-0.0145523620168661,-0.0728035224428526,0.0963498582155121,0.493992874166887,0.136636455177877,-0.592857641374887
507,1010,0.339981684679123,7.19505755696548,0.925631011134088,-0.00458969116644974,-0.0792983245066241,0.0841515563220704,0.585298970398654,0.31107507917878,-0.950026998751597
508,1011,0.340350261651592,7.19390675208053,0.926120135664078,0.00393490356131202,-0.0827321626759535,0.0683886062243024,0.597839878749804,0.391296646155361,-1.27379982231799
509,1012,0.340757533492867,7.19291062527156,0.926437785056492,0.0110880112926394,-0.0832454079675645,0.0499718931237994,0.607420595758774,0.402257436047384,-1.53430430636735
510,1013,0.341159299146803,7.1921317987747,0.926578150492923,0.0173195809365146,-0.0797687192569662,0.0303578471181648,0.809398416785823,0.442756014175716,-1.69489941357813
511,1014,0.341580754601491,7.19164697379486,0.926538742282459,0.0259509118458445,-0.0699288077272195,0.00962404796514107,0.86310492122285,0.416116263683042,-1.81129504106834
512,1015,0.342027911547329,7.19147094312739,0.926320499370944,0.03500161743246,-0.0560633138497354,-0.0115882356428563,0.828548974742201,0.295669529250569,-1.88837777165497
513,1016,0.342493769150325,7.19159531833321,0.925928728540026,0.0430054768791246,-0.040363018451961,-0.0321690791826445,0.748943996401231,0.00209386299460246,-1.87745589970195
514,1017,0.34295935375933,7.19197597501962,0.925374701019424,0.0489151009200974,-0.0213757182548779,-0.0512375270336451,0.70955262986351,0.0930473385614133,-1.76608499136381
515,1018,0.343423710167759,7.19254551571633,0.924679646238853,0.0543257392132582,-0.00173260302034937,-0.06785250304551,0.603627829517619,0.260093431879847,-1.54444830135745
516,1019,0.343875714615633,7.19329579286398,0.923867250876741,0.0572675096868126,0.0177510087610063,-0.0817160871131282,0.467536568740683,0.164068570481951,-1.31510941207493
517,1020,0.344267522295788,7.19425351673429,0.922952671610665,0.0582462872713907,0.0363684383904462,-0.0928787228015351,0.375788716074272,0.0444507198511666,-1.08642214828236
518,1021,0.344642749626812,7.19528817138395,0.921977624500681,0.0565601296466178,0.053877214044749,-0.100106780158071,0.337049943277273,0.0080322569385834,-0.774709567641117
519,1022,0.344960982993814,7.19636989634624,0.920966395666316,0.0538742978400582,0.0694450310586542,-0.104775623642178,0.251674732245926,-0.104807881507606,-0.568986015476096
520,1023,0.345244131312785,7.19748517285661,0.919931173124368,0.0512593931235872,0.081780274229831,-0.10800694473361,0.119591807203568,-0.131252933582876,-0.428840961913497
521,1024,0.345506167070622,7.19859791926526,0.918865150821268,0.0525903916883482,0.0920633265532495,-0.111560574344172,0.0965176720045146,-0.102523954492537,-0.392790419063733
522,1025,0.345803912837494,7.19968797603199,0.917772239158568,0.0561412016082323,0.10018499880389,-0.115607350362938,0.0412425965653694,0.130884958097461,-0.402073151310444
523,1026,0.346170789749927,7.20073546207385,0.916652567865263,0.0595308667705834,0.105467992222476,-0.119115230959326,-0.0552711332210495,0.222551301541545,-0.320231451331946
524,1027,0.346635138593541,7.20173026801733,0.915495008374099,0.0624957504881524,0.108776827510784,-0.122801409416425,0.0472540285793946,0.520221264464245,-0.294254896859366
525,1028,0.347241739693867,7.20269886423549,0.914443219797338,0.0639908607016332,0.113569143540949,-0.103019725001156,0.320914971931391,0.73766507507962,1.65023842773963
526,1029,0.34825458660867,7.20351324096677,0.913420856133496,0.0782536121582382,0.112516320190084,-0.123046220523035,0.158588959736781,1.23978098401296,-1.95608992061406
527,1030,0.34948229572069,7.20420335107656,0.912329180207098,0.0857173309956591,0.104550864518037,-0.087197614218606,-0.0784917296835863,1.43381294008595,3.86047263058874
528,1031,0.351209156314515,7.20482469580451,0.91155970623121,0.0955089441425525,0.0952956559007724,-0.0665255668328284,-0.177499013480589,0.865814382963777,2.43404610045005
529,1032,0.353266324493673,7.20530719568268,0.910943386386945,0.102245651582186,0.0683654488601565,-0.0248271179328111,-0.86401183178654,0.350760731520447,4.43044806101868
530,1033,0.35551071635825,7.20565529926158,0.910568986298754,0.10271555138442,0.0381100451206841,0.00186448004084564,-1.12094582459883,0.20898795094159,2.93556032317327
531,1034,0.357722453393641,7.20583465326918,0.910276305066425,0.0965418181573789,0.0136866174902096,0.0174750628721676,-1.49449256448942,0.779595022965532,2.13808149512343
532,1035,0.359849713156106,7.20594320912793,0.909974136134312,0.0958661021828039,0.00204114544372987,0.0192883260016076,-1.11115465233567,1.12977447443529,1.03276987991524
533,1036,0.362170177050128,7.20608423529394,0.90953314118815,0.123296480027831,-0.000272656604051411,0.00577301506717052,-0.891508832921773,1.23383038485526,0.0278540273225046
534,1037,0.364812478749581,7.20628225670274,0.908973124025029,0.166220916120528,0.007041268889629,-0.00236896155703676,-0.183233226786061,1.00984428111779,0.523354847338911
535,1038,0.367833395419657,7.20643442650811,0.908435209585294,0.207285444761779,0.0126858916139926,0.00879092660579997,0.400012426680382,0.616493646384585,2.01089330877005
536,1039,0.371298626548775,7.20661323188227,0.907941430299693,0.240689197701766,0.0124665715306332,0.0223816562516817,-0.0232575519163047,0.769274527360274,2.21859654213979
537,1040,0.375294531190655,7.20718850563645,0.907588116510334,0.267566601262043,0.0181781182117972,0.0233104716949921,-0.0739459238750083,0.647192904358261,1.01293340510083
538,1041,0.378959073980029,7.20863928310822,0.90760398415652,0.272583900305712,0.036996148391557,0.0173724499818207,0.103546200833841,0.143936711180456,-0.42608204790505
539,1042,0.382156740705866,7.20941624367485,0.90716704117241,0.270468490004543,0.0526716476980186,0.00227286197965963,-0.453033896515484,-0.353472091640813,-1.10303669229986
540,1043,0.383930015170598,7.21102519831963,0.907155710201685,0.249258045691848,0.075546745528307,-0.012899669313501,-0.53397357955076,0.16191693335029,-1.57184632256764
541,1044,0.385196492688985,7.21264915124794,0.907043622609343,0.218706278168283,0.10276234240159,-0.0239935401282992,-0.0383934900866094,0.0539535321924644,-1.41885971918984
542,1045,0.38532088052403,7.21400186957055,0.907041418671905,0.17595630394422,0.121373834247073,-0.0247836936177744,0.476051403362138,-0.454635803689429,-0.729353129646165
543,1046,0.384553329041176,7.21437626964756,0.907438322818711,0.132062017007443,0.114823317129855,-0.0117568267860287,0.958440694405036,-0.815975215323033,0.286522371986781
544,1047,0.383210565006012,7.21407219485699,0.90827604463327,0.0852850032430767,0.0917335444111604,0.00749752000547811,0.866174545301168,-0.967061108204718,0.64835911045234
545,1048,0.381811257115609,7.2135231368635,0.909386793860317,0.0432511728795828,0.0652985603100418,0.0294694371736843,0.477083696495318,-1.36179383323151,0.816788833537366
546,1049,0.380537855566918,7.21287964330284,0.91068393446837,0.00462458028441809,0.0410865342002708,0.0497758768734425,-0.226844193436156,-1.36222469567682,0.760480073182548
547,1050,0.379448928615119,7.21215004675528,0.912113255569356,-0.0246404212807572,0.0164084190772117,0.0703177900563426,-0.458787344957405,-1.52029508042144,0.954766832328839
548,1051,0.378598596093959,7.21137903165798,0.913630046303649,-0.0412206825411519,-0.00731661390481583,0.0855314346377618,-0.59596307434269,-1.23854834277837,0.677747149488412
549,1052,0.378039634954294,7.21074357657853,0.915166810487027,-0.0441816928806693,-0.0226056542540259,0.0949086200443297,-0.50013304215489,-0.989200881002423,0.26357787207454
550,1053,0.377791002298406,7.2104092306762,0.916664782922024,-0.0399244352597392,-0.0285680590821912,0.0981102523893196,-0.585242353899174,-0.80060963270414,-0.265796232228377
551,1054,0.377770459262934,7.21048121377245,0.918070144758007,-0.0339347555944731,-0.0251231561537555,0.0972763498364525,-0.554389284190722,-0.654934752763033,-0.60173010779421
552,1055,0.377887239902625,7.21099579634196,0.919345849518801,-0.0284520484207156,-0.0152215323968863,0.0926419320278241,-0.565730193763238,-0.661735914608593,-0.853705976111483
553,1056,0.378033865971652,7.2118817048819,0.920472096492541,-0.0246588438347804,-0.00141079168972167,0.0848231417696835,-0.440311238356155,-0.64009576539657,-1.05470967320166
554,1057,0.378166469871914,7.2130702235088,0.921443282783114,-0.0220326667649601,0.0144081505276338,0.0752481980780201,-0.298091910720568,-0.691757145991944,-1.15612641161531
555,1058,0.378251490588918,7.21451384784198,0.922275173206573,-0.0212822483902591,0.0323475472850491,0.0660370889509865,-0.175411937824626,-0.759372694251329,-1.16402327666551
556,1059,0.378314064786774,7.2161120454029,0.922961194736393,-0.0180436134086117,0.0481182970731139,0.0540037833381058,-0.207236320650168,-0.703770364246611,-1.26689794237056
557,1060,0.378352567630416,7.21771613649334,0.923493345666451,-0.0154440469148274,0.0607720594379661,0.0417867109862874,-0.0616963786461174,-0.676367589579302,-1.25708173808131
558,1061,0.37840707599244,7.21925850835737,0.923881954388136,-0.0121628650274278,0.0686123468934167,0.0294747877016081,0.153190718029206,-0.548292865122769,-1.23698027512347
559,1062,0.378545195036081,7.22071354832928,0.924128026458588,-0.00878415571466562,0.0731992969185929,0.0171550510256945,0.176250994176236,-0.461923965726833,-1.21761209832697
560,1063,0.378758363617278,7.22204038824059,0.924233190234306,-0.00600554177806821,0.0732842796292498,0.00470721469003184,0.214419189666674,-0.43715129867733,-1.22528628504248
561,1064,0.37902871016994,7.22317065582044,0.92418995575203,-0.00399068910406831,0.0682449561383358,-0.00894895389559421,0.121733687467016,-0.404708934962007,-1.27910585695194
562,1065,0.379291968149171,7.2240597483259,0.924000915053108,-0.00429920229840728,0.0619075768342306,-0.0228010958050526,0.0715987553062048,-0.403419109614773,-1.33920012372446
563,1066,0.379498562623555,7.22471370924344,0.923673801657882,-0.00695270441100998,0.0549309695598632,-0.0365453401938147,0.0353726628040918,-0.445379907876583,-1.37372797337049
564,1067,0.379629832923798,7.22516218025917,0.923215495244011,-0.0101065203365184,0.0475959364701991,-0.0496547308258087,0.0346804218984402,-0.541669430846269,-1.31492161010346
565,1068,0.379693957385283,7.22545624988559,0.922639334967714,-0.0137688723247484,0.039666783911041,-0.0619058767873487,-0.00215006968411445,-0.57133671528575,-1.23317106320498
566,1069,0.37968282951976,7.22565721934122,0.921961554023032,-0.0163246912956047,0.0326428759963915,-0.0724822761430091,0.0475403210868156,-0.664872750919974,-1.09021828254181
567,1070,0.379604434598889,7.22579030444268,0.921195762701762,-0.0177382052936594,0.0253759209381443,-0.0818871746117851,-0.0022519274514541,-0.697238752335784,-0.947946369979643
568,1071,0.379452048803932,7.22586401208577,0.920360279542643,-0.0184613693304196,0.0174204971755045,-0.0888090984885452,0.0392272679730888,-0.728604470069127,-0.709816265465207
569,1072,0.379236121458386,7.22586691238979,0.919479886719703,-0.0187827392334462,0.00898436921841174,-0.0930712286210819,-0.0221150984684881,-0.715540866543823,-0.471251978671052
570,1073,0.378954157020442,7.22576111007341,0.918577276640163,-0.0196808985546324,-0.000612732800653242,-0.0950471704147466,-0.0546558577865692,-0.487335365702065,-0.258348501268846
571,1074,0.378611205165085,7.22558843348807,0.917677344853954,-0.0217800965819921,-0.00891236397299541,-0.0943029804115092,0.0381812599635032,-0.244799610147014,-0.0361870598914176
572,1075,0.378226708993711,7.22538975518496,0.916805916056408,-0.0246556766863311,-0.0176200469870018,-0.0906871536965885,0.205501568042926,-0.310996692122661,0.216354602296894
573,1076,0.377768631982592,7.22514326054926,0.91604504229389,-0.0303629195068889,-0.0265881833364345,-0.0701507867420997,-0.0053175699524736,-0.335605464152886,1.76299872726135
574,1077,0.377362562726826,7.22477164834941,0.915407085539933,-0.0416095581382719,-0.0326361451860818,-0.0707869165164204,-0.642512468686051,-0.130142263244128,-0.249540975473034
575,1078,0.376790346645193,7.2243726158542,0.914738732488,-0.0466570634569712,-0.0406809810733999,-0.0403107104367865,0.110228118795313,-1.26227740771654,3.07997649593483
576,1079,0.376111286578657,7.22379900608415,0.914354775590115,-0.0543979549256658,-0.0366812387713509,-0.00798998813247293,0.666546300501482,-0.493684615784658,3.26072309905669
577,1080,0.375415369689275,7.22319326816139,0.914132670706101,-0.052245168176526,-0.0298353308331854,0.0199500510383595,0.576984886281284,-0.505470006293504,3.010635524123
578,1081,0.374703678254912,7.22262934778003,0.913986058807293,-0.0566229799883654,-0.0131642637437742,0.0325781286407049,-0.569091679403526,0.046936396229151,1.76452971478756
579,1082,0.373949120754269,7.22208635795854,0.913766439430521,-0.0646985303677731,-0.00047416170939465,0.0314107402746338,-1.49991376803158,-0.0818480689271322,0.619646159205872
580,1083,0.373371712472148,7.22145140560326,0.913440780578464,-0.0578436607910709,-0.000521382633830401,0.0286996664774289,-1.13795537339011,0.0378615870897486,0.691098932833056
581,1084,0.37325899314096,7.22087929540456,0.913066340683572,-0.0389778383439461,-0.00517485084759172,0.0254614042549192,-0.457425836352526,0.259777434754112,0.7493239544792
582,1085,0.373662404438193,7.22056097978026,0.912703678892184,-0.0228184469041899,-0.00179458375087644,0.0303751673747584,-0.0204079426881784,-0.0812473601678063,1.2343466623168
583,1086,0.374181251384406,7.22029961714982,0.912616414526323,-0.00234608080754488,-0.0103018134232554,0.0333078619925111,0.041520892160465,0.396840882197956,0.830142383629582
584,1087,0.37574892300399,7.22037427728985,0.912224450561529,0.0350927023194712,-0.0336206588959992,0.017593711294773,-1.24011708265346,0.723392131135747,-0.452061421204315
585,1088,0.37666608534876,7.2199877268076,0.911688507811803,0.0463152578920598,-0.0582272945419626,0.000976347609805393,-1.68891201655501,0.707159327085454,-0.839685753930772
586,1089,0.377097104408612,7.21938772561569,0.911259017210767,0.0297554391539884,-0.076083345246353,-0.00664541612392749,-1.77167357265845,0.805682259115486,-0.38774086691641
587,1090,0.37675863635286,7.21841027797519,0.910893414463416,-0.00820447555816917,-0.0915326207589957,-0.00451737861117185,-1.42327223923149,0.258380005511306,0.200827342110641
588,1091,0.375659533470616,7.21690584111024,0.910622818474557,-0.0464489987714378,-0.109277272248266,-0.000319190371935861,-0.782334514276329,-0.290712058267068,0.364434401431159
589,1092,0.373893000037276,7.21499079317322,0.910427101499053,-0.0697157688980551,-0.123802272441437,0.00176501847375119,-0.0960436520876225,0.0488353982876214,0.188576248046961
590,1093,0.372069349633183,7.21273854017459,0.910275408989875,-0.0782303427985811,-0.131394395630094,-0.0013806810937945,0.352019348315325,0.611943981061432,-0.260279644564569
591,1094,0.370031514796957,7.21078127741178,0.910232279102272,-0.0849976085374311,-0.12817484200438,-0.00883403778367909,0.358417358365519,0.707259457534407,-0.776259775434593
592,1095,0.367986541245287,7.20935057582303,0.91018658775111,-0.0932090883313052,-0.115356485509534,-0.0152485767986436,0.278302201765052,0.614438169358738,-0.857695857756076
593,1096,0.365887964832615,7.20897796519372,0.91030549358565,-0.101389734796913,-0.0882884124095302,-0.0148838248302934,0.55621264578816,0.354179914515329,-0.446005920124296
594,1097,0.364037748117042,7.20956447687042,0.910733928987254,-0.106037629299327,-0.0567207241517429,-0.00648832173418725,0.543281696857861,0.107885107545073,0.173727050655204
595,1098,0.362546394680632,7.2106901613474,0.911386651709889,-0.10925022797853,-0.0305390070740951,0.00858658079825095,0.477911601571302,0.00504824459806258,0.606615984001375
596,1099,0.361266131033833,7.21209851804069,0.912271363509106,-0.114836299731211,-0.00895486106522099,0.0323386386302641,0.52638557219274,0.11247572259029,1.38419170063265
597,1100,0.360154639126001,7.21327974494752,0.913337606099411,-0.122883820560298,0.00367105013976911,0.0591035554540448,0.405377387673862,0.404641074112951,1.73389942730246
598,1101,0.359152935907466,7.21411541824823,0.914581117315655,-0.130077563387312,0.00761045349243776,0.0844820662852937,0.42078369387874,0.672103002464785,1.72647917484016
599,1102,0.358341480466346,7.21448273631501,0.91594551068734,-0.129864097085152,0.007700055354274,0.103447054809988,0.614382592214033,0.800578617300241,1.2034458747234
600,1103,0.357835803812001,7.21438779108283,0.917351895967695,-0.116729809175911,0.00391620087746082,0.112404395061136,0.651574627060632,0.973948876145101,0.453672010524499
601,1104,0.357657072555657,7.21390838529836,0.918742954433803,-0.0980087878945733,-0.000210438108018138,0.117933760168116,0.677966680834493,0.968162486262388,0.195830684040456
602,1105,0.357763932902805,7.21315196233885,0.920097508391685,-0.074707087002245,-0.00534146000030283,0.12086734940361,0.793259635170706,0.651788881343183,0.0218307197967026
603,1106,0.358111912468048,7.2122048256644,0.921395922622966,-0.0500779539204622,-0.0123980652672023,0.120100359193436,0.833530572374741,0.384460438511482,-0.242999469766529
604,1107,0.358674995366349,7.21116660791358,0.922611784707072,-0.0238795980670202,-0.0214162017329635,0.116767882532242,0.828492390539714,0.0577654651676011,-0.408759568060131
605,1108,0.359387078510985,7.21009127975285,0.923728090686127,0.000445581661541637,-0.0317613300963537,0.111761942840525,0.825701563158741,-0.0960314869130184,-0.497541374977326
606,1109,0.360153802238173,7.20903895718389,0.924727114804606,0.019844874248293,-0.0434437606739446,0.10310645928717,0.692203832349287,-0.273189182594518,-0.79454585975999
607,1110,0.360874519546285,7.20808828548033,0.925579254677319,0.032865121749036,-0.0529098651062073,0.0898715881756766,0.567005212881721,-0.28448822869533,-1.20754672301127
608,1111,0.36146920462985,7.20728712851116,0.926248287345596,0.0416684721880235,-0.059263310266738,0.0732001307951474,0.533257551238298,-0.153127314640785,-1.46864240194714
609,1112,0.36186847249244,7.20666758611176,0.926716561637369,0.046122855595474,-0.0604996248585967,0.0544297764452648,0.604061521060198,0.0732155159830076,-1.62759765154074
610,1113,0.362049383490347,7.20627711912799,0.926979264971107,0.046857702953326,-0.0565370828673612,0.0350021942225015,0.637775329384447,0.0921588101524173,-1.69473143963186
611,1114,0.362052343856309,7.20615560656074,0.927041640692763,0.0447584893598495,-0.0476680623933053,0.0154878828908384,0.726396394669958,0.10146967925606,-1.71798763634379
612,1115,0.361901739210174,7.206311330165,0.926909837633549,0.0437331810446371,-0.0349852196352395,-0.00473085588463789,0.689875426518759,0.230901520462776,-1.76024073652187
613,1116,0.361672590686245,7.20676978518381,0.926588606285842,0.0411015557716146,-0.0169964029369958,-0.0244792118544366,0.567742099225574,0.161907143549737,-1.74409099206304
614,1117,0.361395400562866,7.20749659099063,0.926090798938572,0.0373975907601767,0.00268414927128086,-0.0425544806827515,0.504564114123713,0.201685892480126,-1.61838715352731
615,1118,0.361089211680826,7.20845265493747,0.925437333987817,0.0331588246088462,0.0237869136028574,-0.0580234607857886,0.544252962847249,0.247645421959743,-1.39841210616433
616,1119,0.360778835151303,7.2096748000218,0.924641271455219,0.0296781438192828,0.0453764577639748,-0.0706107378455125,0.515481183423396,0.167875901568124,-1.14098586502317
617,1120,0.360510149413649,7.21095680917623,0.923749722452634,0.026148586389208,0.063771503339178,-0.0799069127432317,0.483023267904341,0.176960563514169,-0.81893202293327
618,1121,0.360318103456552,7.21227989439595,0.922791043468488,0.0248591612431138,0.0772527800061193,-0.0861823795754225,0.439353936020624,0.0560569203766315,-0.523245925450006
619,1122,0.360216995979373,7.21360480238192,0.921798986303096,0.0228789560321515,0.0892553894932503,-0.0892507874815275,0.285060263628692,-0.0329452331626991,-0.249656698803137
620,1123,0.360210033997856,7.21487090446032,0.920792348523131,0.0213831437925175,0.0965835616167336,-0.0918401254157219,0.20059598721594,0.0220992013810919,-0.185242535072726
621,1124,0.360318050655997,7.21607752456783,0.91977048088897,0.0219842909294413,0.103927737714669,-0.0949941564687455,0.0713774575799992,-0.0213101172718546,-0.211558423267926
622,1125,0.360543005025152,7.21720468813211,0.918724835854357,0.0253091731759772,0.110008480047854,-0.0995610768223187,0.136704781179209,0.0611527689325243,-0.322379848925814
623,1126,0.360895973985054,7.21820660073753,0.917643855603907,0.0319077459692933,0.114982008925543,-0.103510194857813,0.255256097882161,0.339946827535862,-0.250457613578008
624,1127,0.361371715711073,7.21908960749945,0.916551909802771,0.0372796333234272,0.117007899582078,-0.106187739762499,0.0924516738279801,0.232860827096067,-0.157334914715342
625,1128,0.361955532332211,7.21983327695555,0.915443543427038,0.0435443298301324,0.115012372958678,-0.108707110636014,0.0731496772894175,0.236493221948883,-0.126521615814413
626,1129,0.362657710731225,7.22045039872269,0.914329926513106,0.0474345886893904,0.10952044111314,-0.10881930457702,-0.199672859447962,0.100087970846386,0.0398177945989691
627,1130,0.363507604632852,7.22099092183981,0.913309027027174,0.050720600873193,0.106431953688175,-0.096173203786232,-0.0256592295874643,0.377551377040617,1.0289780296256
628,1131,0.364550113132844,7.22139356918345,0.912298806782818,0.060700700754224,0.0984736252784873,-0.101326411197931,-0.314985749431642,1.09506552395111,-0.469546158991441
629,1132,0.365646897258218,7.22183319946103,0.911373661279369,0.0541242249856342,0.0887460034522911,-0.0702798403408327,-0.799908139820451,0.389927900970694,3.21399744749397
630,1133,0.366896334378405,7.22234288531609,0.910700122372951,0.0574057781988204,0.0748811955106107,-0.0429724118188987,-0.271324335752018,-0.158681257483033,3.02633552686606
631,1134,0.368275972507021,7.22287815117199,0.910179765210159,0.0532536280128856,0.0575651853911427,-0.0126997460749646,-0.674651306408254,-0.188610514120645,3.20537985665608
632,1135,0.369608634437717,7.22348249421306,0.90978449712778,0.0461583942939216,0.0463106301539911,0.00725302878810012,-0.578710064422235,0.460471189131989,2.26119374670627
633,1136,0.370808218360906,7.2243981236098,0.909474519289054,0.0394067762807279,0.0482368133690549,0.0179405821801208,-0.563954144247745,1.09343966038541,1.53828502679454
634,1137,0.371766837358792,7.22524545487093,0.909336924722105,0.0362904757345488,0.0519327763245741,0.0228992511574675,-0.201307668553245,1.29031752198992,1.01712569556472
635,1138,0.372973347047825,7.22613224853652,0.909220486050513,0.0580044906019561,0.052922610558528,0.0262021599308849,0.259909837657426,1.43643867795718,1.15567691702531
636,1139,0.37465400200407,7.2269501891106,0.90913771525122,0.0824522801419734,0.0469079236750477,0.0388422882363745,0.0539526607832655,1.31706737460164,2.14894220236323
637,1140,0.376390960906908,7.22786800318509,0.909143966416145,0.0876514296638662,0.0404755350745223,0.0557233018530331,-0.577325694797938,-0.387670997020629,2.03723420792105
638,1141,0.376821857937756,7.22852901807227,0.909113178148489,0.0831591037185435,0.0328030727276525,0.0508385553328695,-0.567971999103725,-0.746909073904618,0.270225601470614
639,1142,0.377881706228229,7.22894800779095,0.908983529659612,0.0938788537648306,0.0402465048274257,0.0330727942592496,0.0804326793360347,-0.279703833771641,-1.13275467571813
640,1143,0.378904343901072,7.22919550645717,0.9087214501505,0.120755875796368,0.0477142824243636,0.0121123504378824,0.420028781243104,0.884224984855784,-1.49743006364311
641,1144,0.380523707704551,7.22953710066849,0.908336650101563,0.151589809055717,0.050398226884985,-0.0106302211794432,0.0105415485113224,1.0807627744222,-1.66215250246605
642,1145,0.38217314531226,7.23001878987828,0.907871043757347,0.163329200381858,0.0509737563203369,-0.0297382039333056,-0.266301475781939,0.56009541246429,-1.51378595209816
643,1146,0.38380672606131,7.23086205576982,0.907335626660353,0.16427209490593,0.0545997735228768,-0.0437694923810658,-0.0597032842514927,0.15168192528054,-1.17831324705784
644,1147,0.384903913037773,7.23201926622268,0.907336233892829,0.153943250552278,0.0641638539990616,-0.0473828459898668,0.0245088717122085,-0.082972784942628,-0.652400384811637
645,1148,0.385350887774776,7.23335767450419,0.907353674644565,0.124526055332888,0.0756342131034315,-0.0376848647676711,0.196138752261317,-0.923253800621522,0.192251626851
646,1149,0.384635079336014,7.23415501476,0.907595363606783,0.0771068433798951,0.0761420889380482,-0.0205185427644238,0.435213152661848,-1.69211431586531,0.666905513218479
647,1150,0.38267202548621,7.23395976732469,0.90827733167533,0.0189305641572349,0.0611085317128231,0.00329868963592621,0.563848261345791,-1.8363461713869,1.10948161082155
648,1151,0.380040874233896,7.23305386959554,0.909355926904441,-0.037915876884059,0.0401748570451353,0.0251189943443333,0.307134872700228,-1.50770510359604,0.826016295410239
649,1152,0.377339484460489,7.2318551639481,0.910682368096788,-0.0862471873882541,0.0190686226411494,0.0470505549517728,-0.274765514642316,-1.43682881487057,0.884808106880282
650,1153,0.37484540883316,7.23061485048869,0.912210873006309,-0.124095050341659,0.00024889888579082,0.0695800143979092,-0.59630015013074,-1.46782369031444,1.03594422252006
651,1154,0.372783033899167,7.22947925115662,0.91385766458067,-0.141742401360846,-0.0179268083705618,0.0859306369531981,-0.835657232324072,-1.13973584684643,0.727212797135452
652,1155,0.37130048173592,7.22855466881212,0.915532517936316,-0.143657104083013,-0.0308826787477361,0.0917456016166725,-1.03797029753195,-0.58353835770965,-0.11390020546966
653,1156,0.370380750977534,7.22800675056842,0.917138121548985,-0.133643945495117,-0.0434253325255715,0.100230003103369,-1.00240177391331,-1.17278642685747,0.257659027393739
654,1157,0.369903499247779,7.22770927271573,0.918696523723275,-0.116905722102677,-0.052188173990081,0.108724373304506,-0.456738975671744,-0.982866197169572,0.323630303036021
655,1158,0.36978391353591,7.22763153494515,0.920176742599971,-0.0990725569661667,-0.0582997761910971,0.11162345743918,-0.332692628945729,-0.92882690273996,-0.0356422623818493
656,1159,0.369924761946517,7.22773237903468,0.921528015282977,-0.0814910961074384,-0.0601659250266905,0.107811733087673,-0.303088916829853,-0.901395510939748,-0.516051432008729
657,1160,0.370182586387384,7.22791394356244,0.922692118268146,-0.0649015164321885,-0.0582612334827771,0.098827277096019,-0.224943207439294,-0.793252597534543,-0.87915499548956
658,1161,0.370464820896426,7.22817524327336,0.923660569667596,-0.0518506018506893,-0.0528028428839612,0.0869291423951862,-0.115421027831646,-0.713244693665093,-1.1423527965697
659,1162,0.370706884880973,7.22850046757615,0.92442955639253,-0.043294361580989,-0.0458327287907003,0.0724188633549105,-0.102632195371389,-0.628963475110114,-1.38057131874669
660,1163,0.370911201504829,7.22892543365694,0.92500647924645,-0.0360993784543333,-0.0347284200469189,0.0573729140485978,0.00294783567958751,-0.650347506271218,-1.46943417166989
661,1164,0.371106312891586,7.22943288927748,0.925411252232578,-0.0305681624817807,-0.0238405143633793,0.0429096145079269,0.104759791480216,-0.7163513267697,-1.44560620206136
662,1165,0.371337406223237,7.22998013387645,0.925662225225582,-0.0238240969095153,-0.0137024999580229,0.0293575086942348,0.1300456329158,-0.688250768583712,-1.32048555849776
663,1166,0.371595314516994,7.23053070424595,0.925780847020151,-0.0195193803215676,-0.00702712024176291,0.016986943257615,0.141973602614931,-0.743406965513628,-1.20633333314612
664,1167,0.371864308470089,7.23101082044236,0.925776390279926,-0.0179021780256958,-0.00520940907627974,0.00472032548470049,0.10128032160251,-0.745786968767746,-1.16357974993782
665,1168,0.372140294689193,7.2313666020022,0.925648027576908,-0.0172641430567381,-0.00697912330363046,-0.00825209796507101,0.0682781379250616,-0.637915777705017,-1.19172063574908
666,1169,0.372419790141222,7.23158674245173,0.925395345162543,-0.0175661532961741,-0.0109893621233066,-0.0205468002819114,0.131694867224517,-0.500076962265294,-1.13457013488379
667,1170,0.372720783399175,7.23168141010429,0.925017038478733,-0.0161350020253408,-0.0150632953505066,-0.0335233401502812,0.0585365684602855,-0.466832341113328,-1.15848391570743
668,1171,0.372982827612255,7.23162166528171,0.924515755189265,-0.0161022648227621,-0.0202839372127712,-0.0463506521387743,0.0725296784332706,-0.372120947112051,-1.15977545558145
669,1172,0.37315539761081,7.23141915142126,0.923892851856995,-0.0170772303026462,-0.0250643238963293,-0.0595182619887669,0.0379797637589317,-0.328324726305391,-1.19055240051949
670,1173,0.37320158989959,7.23109990812929,0.923152440534259,-0.017642157693226,-0.0296769887642655,-0.0717259352850194,0.0534285298885663,-0.337178001977882,-1.10034303803769
671,1174,0.373086511483713,7.23067039281894,0.922314318333087,-0.0198536226227793,-0.035728167676318,-0.0825269023868533,0.062646985763627,-0.32419826782014,-0.987135383385673
672,1175,0.372835744133603,7.2301571073884,0.921400342299702,-0.0229067347785825,-0.0419039089368235,-0.0911018482869792,0.0203717046375583,-0.316386221053012,-0.816152783390661
673,1176,0.372491576156319,7.22957352930316,0.920432123194275,-0.0253367625786492,-0.0488150303883709,-0.096715127730461,0.0697667196697382,-0.275739369143862,-0.54747240897969
674,1177,0.372122560906311,7.22890984130596,0.919435342162608,-0.0256176943246803,-0.057191188914488,-0.10108031121998,0.147566007713228,-0.34511587122365,-0.424959361614635
675,1178,0.371720969214278,7.22814539053709,0.918525307154274,-0.0296108648549278,-0.0665541953925912,-0.0845935542069483,-0.0649468123107428,-0.236218778959615,1.40326853420907
676,1179,0.371470734999658,7.2272442933161,0.917709190100285,-0.0381738187794894,-0.0757354902497937,-0.094883315782772,-0.783512173988562,-0.195719678441313,-1.18222089083011
677,1180,0.371195974660845,7.22632457025396,0.916777470541372,-0.0376463283948857,-0.0902137688656589,-0.0712173088749613,-0.0385675591933682,-1.4382359067839,2.50798379806349
678,1181,0.370993468505357,7.22527818164212,0.916106458118233,-0.0349192139565966,-0.0873211063428386,-0.0400547146028949,0.640374123073278,-0.294487279907575,3.42010444976204
679,1182,0.37091633312358,7.22422947145679,0.915601735829204,-0.014680638058952,-0.0768057935502241,-0.00686764376964281,1.08797446749077,0.110760916092731,3.47032238592972
680,1183,0.370443898486146,7.22313965254434,0.915153515422307,-0.0152542402125134,-0.0571219387295267,0.00835176818394511,-0.509489695540998,0.848758446233342,2.10053587398848
681,1184,0.370988567732393,7.22262807107753,0.914563120820576,-0.0171914924514288,-0.0362717866855684,0.00634565414866173,-1.79961832000545,0.499080713771436,0.896135282223874
682,1185,0.369913944628424,7.22182949117783,0.913784855274373,-0.0352950851039925,-0.0306843392455939,0.000474588593308966,-1.62228217360909,0.139749380734402,0.694421151438174
683,1186,0.369003758038929,7.22106114185526,0.912833020524615,-0.0491429727517634,-0.0376454872108974,-0.0121107394339102,-1.25580359518005,0.111521483718045,0.0100189723343454
684,1187,0.368072705802411,7.22015848138413,0.911796745609607,-0.0677849945739636,-0.0500908741722887,-0.0225439456673716,-1.86845461719486,0.508585648459986,-0.0217143123268213
685,1188,0.366835654745271,7.21920276331531,0.910851829277869,-0.0845866774932014,-0.0548913160456172,-0.0146110143041291,-0.494352093965311,0.273116107297064,1.27141535414168
686,1189,0.366165900678578,7.21802832349429,0.910143560633236,-0.0795311349964333,-0.0768252900991117,-0.00297643070045711,-0.519786831609965,0.829453996904289,1.83095429450856
687,1190,0.365653546509739,7.21679332102676,0.909716497437695,-0.0784021998143794,-0.105003611387176,0.00717046661827337,-1.73520480459642,0.223722902400122,1.50152770158574
688,1191,0.364990708836782,7.2155008269647,0.909647644517304,-0.0890965454007228,-0.127159738407081,0.015799457658598,-1.34529123971769,-0.333002773836227,0.853408064875546
689,1192,0.364035212531889,7.21395450090856,0.909803057320783,-0.0927537693891638,-0.14862703302053,0.0135626296139424,-0.829514230936378,-0.0712455856246102,-0.197794673863662
