,Frame,CoM pos x,CoM pos y,CoM pos z,CoM vel x,CoM vel y,CoM vel z,CoM acc x,CoM acc y,CoM acc z
0,54,15.2611305142287,0.722863418996532,0.973719240185312,0.0295282779952195,0.104203749717474,-0.00635826935906974,-0.0481846007897379,0.239763261335084,-0.228569687953848
1,55,15.2613752098233,0.723991141384661,0.973656741390863,0.0303141023640413,0.110193359223256,-0.00871408431933444,-0.0557134577513942,0.27559764114113,-0.237777311376154
2,56,15.2616138285539,0.725179744109606,0.973579608720729,0.0313478228693315,0.116860629632852,-0.010619757230942,-0.0812922969507327,0.239817680300908,-0.210414186603711
3,57,15.2618618158657,0.726416749240938,0.97348946481331,0.0314539939281987,0.122652866737784,-0.0126203966581931,-0.101748414398638,0.250090447355989,-0.220994853773612
4,58,15.262119051637,0.72767918884426,0.973387725832819,0.0317453705409215,0.127492495515869,-0.0138975649465738,-0.109485831557163,0.338409383070397,-0.175200657690387
5,59,15.2623671427082,0.728940154623263,0.973363745724577,0.0321585563265146,0.130115387120816,-0.0141028529715417,-0.173587917794662,0.298582704965316,-0.149832793524599
6,60,15.2626321148812,0.730193398817215,0.973390868433183,0.0321754563818763,0.130939817693843,-0.0141663603502745,-0.245561703120894,0.224847646609163,-0.165826983230495
7,61,15.2628677112112,0.73139328612238,0.973432841231934,0.0303309297456481,0.128977143057101,-0.0149368488594238,-0.19651640908966,0.114848484574477,-0.24633435038111
8,62,15.2631214122985,0.7325329997748,0.973485536732765,0.0282432100415607,0.125394786490307,-0.0160589003897013,-0.205361845506496,0.0230768111310156,-0.314557789157199
9,63,15.2633989099862,0.733627186938437,0.973546001866909,0.027637498857041,0.121305224983971,-0.0168498809547728,-0.074649529738811,-0.00589040329832091,-0.320518864562542
10,64,15.2637036392595,0.734717892523659,0.973618047531564,0.0275424578233095,0.117998621001831,-0.0165225203501095,0.0179259227265935,-0.0475440410242113,-0.238819889895779
11,65,15.2640326623693,0.735803824656661,0.973712485623591,0.0279027836349733,0.11451754641459,-0.0149164731325072,0.0308078300457896,-0.0719238530501068,-0.135788989820638
12,66,15.2643841844408,0.736859507810033,0.973840115749088,0.0288519068131531,0.110494965095645,-0.0123994939397711,0.00813282773163239,-0.0727485064266549,-0.058750973845948
13,67,15.264716101433,0.737877929174871,0.974014121447361,0.0291564592675117,0.107534467248989,-0.00843922500520688,0.0403547706949434,-0.0692855195688282,0.0767634063160228
14,68,15.265021796489,0.738883761850771,0.97425522917135,0.028396279437821,0.105414501088717,-0.000847720492949001,0.0284281350743454,-0.0628164594481301,0.402285750125321
15,69,15.2653119621998,0.73987447113539,0.974584020034656,0.0264339512002258,0.103132629906631,0.00904806440376575,-0.111916624398544,-0.0927515188515008,0.619481118502326
16,70,15.2655631464862,0.740808271355583,0.9750095898177,0.0239600610355499,0.100469115059781,0.0197290901841496,-0.150241102656178,-0.134353235301701,0.726879189735733
17,71,15.2657603543221,0.741642186563642,0.975527307112065,0.0212743452929,0.0958267325833645,0.0304317382222279,-0.206252942996943,-0.164206540209581,0.740302454049192
18,72,15.2658831468577,0.742336558808504,0.976161873899349,0.0168007800954008,0.0886805663204291,0.0397354721936936,-0.232735278845674,-0.142837847629249,0.620907646740778
19,73,15.2659381174074,0.742851529947428,0.976847075968698,0.0112442457149454,0.078368629971543,0.0459914744541964,-0.28039001824873,-0.247342907908912,0.372051990844049
20,74,15.2659558720004,0.74322389605771,0.977541971007426,0.00773168005085997,0.0663666116057157,0.0497676099733365,-0.297390856570161,-0.346834240385176,0.153337083501261
21,75,15.2659416198611,0.743487230005252,0.978201089618975,0.0042559904937323,0.0527746341953014,0.0504000785014672,-0.224656003238518,-0.488697436106402,-0.0805373405235047
22,76,15.265966644139,0.743698169408331,0.97869816037561,0.00398682255283824,0.0395604930838537,0.0481123272229097,-0.22510177432329,-0.639272274214623,-0.24982350550839
23,77,15.2661113088213,0.743928415048719,0.979133982251902,0.00662784579405995,0.0271573355143256,0.0441707355185065,-0.172319258055286,-0.800418068938657,-0.360244323207521
24,78,15.2664337498777,0.744152343540506,0.979426914016262,0.0133056410379229,0.0164431096366174,0.0384586662648382,-0.0960913490919979,-0.954910564322824,-0.408345159564976
25,79,15.266837511284,0.744468065905979,0.979132265556905,0.0199243518687347,0.00894087858988918,0.0301533364854515,-0.0269545172982246,-1.00092283985901,-0.390493825297743
26,80,15.2673309330313,0.744866213845244,0.978813217299703,0.0263948763937204,0.00334446706299599,0.0226147751155271,-0.0153497542459463,-1.04030898421828,-0.292502212645966
27,81,15.2679186321265,0.745854785506248,0.978316550698828,0.029402297106942,-0.00120913558995343,0.0170306850695779,0.0455909049007309,-0.823877734439747,-0.150055851356565
28,82,15.2683930523612,0.746391497419175,0.977988109167043,0.0324189954828248,-0.00362900339844462,0.0126288560595064,-0.0153748542344442,-1.2181500510885,-0.0859600558482759
29,83,15.2687978030761,0.746976677906226,0.977665932734087,0.0309188016620377,0.00322482837132062,0.0102361895219386,0.0939373601685316,-0.648080701143117,0.0693302828892624
30,84,15.2691098071477,0.747614423279732,0.977343637701326,0.0267225885031794,0.00913297974746271,0.00845782461389979,-0.048621088315798,-0.792489159448695,0.14367727789652
31,85,15.2692758250793,0.748207101941844,0.977011235525416,0.0209831198594269,0.0128757109551537,0.00630421043708327,-0.117435435399542,-0.785146996463266,0.144677901992482
32,86,15.269388804211,0.748384848667178,0.976426901670137,0.0165414104348978,0.00718188578582694,0.000231604772656895,-0.236835743207241,-0.728701982728809,0.117663059783901
33,87,15.2691096399831,0.748540319348593,0.976046614718323,0.00914350276864982,0.00119118248198864,-0.00293211957429027,-0.384340644675532,-0.652889268057172,0.0913160536566206
34,88,15.2690892458923,0.748343768606119,0.975578135897295,0.00576512737985222,-0.00771046026615766,-0.00807445113431798,-0.422786048906774,-0.541507429410699,-0.00960172009053516
35,89,15.2690231151342,0.748098801047639,0.975083161576673,0.00174256468693786,-0.0157310346887827,-0.0139261245576988,-0.49619694743048,-0.469493575630104,-0.0901475268650417
36,90,15.2688596652589,0.747884574754101,0.974585905162567,-0.00217769358583613,-0.0216944550838392,-0.0198672379646233,-0.530581732830996,-0.421716583901367,-0.159168565700729
37,91,15.2685220581247,0.747741064038093,0.974115002661641,-0.0098283713402153,-0.0252716874678022,-0.0261126496679762,-0.513704984116075,-0.422319998868536,-0.288957983977382
38,92,15.2680100414793,0.747614942207668,0.973688288836009,-0.0198641575332799,-0.0294897138558412,-0.031364075047965,-0.430612948133871,-0.402897917553772,-0.34597562098363
39,93,15.2673955952114,0.747442157933068,0.973354308334315,-0.0289549093411726,-0.0340430364711151,-0.0318732077194463,-0.340494807520629,-0.386583781125625,-0.0653684685230059
40,94,15.2666998566262,0.747140772150741,0.973063155058827,-0.0379268709736361,-0.0435971988705292,-0.0355743207733843,-0.210393350755359,-0.618841170004899,-0.434553156348848
41,95,15.2659399769175,0.746707086056263,0.97278893181585,-0.0480976699001766,-0.0512067942530949,-0.0324372283659349,-0.243198474874071,-0.661105889265788,0.281043220810508
42,96,15.2650712061373,0.74612743812268,0.972583470823821,-0.0574314979408197,-0.0570482462728503,-0.0269218292273259,-0.377495978574078,-0.447384151178409,0.369251082434649
43,97,15.2643084147753,0.74540256057423,0.972154051523679,-0.0615676667699648,-0.0614214843342946,-0.0253969449979853,-0.426579481513844,-0.196117117338709,0.43291357367677
44,98,15.2639487698665,0.744878533547901,0.971968754266965,-0.0599679827651354,-0.0630502499172582,-0.0211874456589782,-0.340412928076012,-0.0529927596224279,0.43331826304715
45,99,15.2633917870326,0.744093489309583,0.971811645261442,-0.0582613387789737,-0.0656674898196893,-0.0159866511380978,-0.363137622437239,0.0471951962090794,0.528386397324576
46,100,15.2627896039922,0.743327389512681,0.971697036663308,-0.0566058209183443,-0.0673253628819153,-0.0119281995971776,-0.312484957540559,0.11897631110696,0.48125997628195
47,101,15.2621288058199,0.742601285180471,0.971607209276433,-0.0567368030720655,-0.0684046823146484,-0.00785004134512435,-0.255211159889078,0.0502523470375798,0.559298350099704
48,102,15.2614108933771,0.741890442328477,0.971563768592691,-0.0597995607242166,-0.0678456848916374,-0.00245928625797569,-0.174677046874666,-0.110048271393338,0.659904819113593
49,103,15.2606956805744,0.7411112135156,0.971583658647152,-0.0640420313355253,-0.0670636552505565,0.00410262480988023,-0.195195701275878,-0.0747648723868115,0.711296929605103
50,104,15.2599550781266,0.740258029052875,0.971674414657104,-0.0697764458048069,-0.0653910700938022,0.0109455845939732,-0.22000451415649,-0.0108935893799026,0.677727700532504
51,105,15.2591890203511,0.7393880151518,0.971815256241621,-0.0738485333442992,-0.0651671422606638,0.0169907003436154,-0.256150070814791,-0.00184248170805937,0.607257772673129
52,106,15.2583785931195,0.738554529558256,0.971993678439603,-0.0772585015762098,-0.0656745336714932,0.0217490801498832,-0.175015201573136,-0.0554558887398661,0.484869469507618
53,107,15.2577050003784,0.73782200366397,0.972193611062125,-0.0767244966517266,-0.0672926029659579,0.0241479096626285,-0.112424110052595,-0.0313154819906386,0.30649749734513
54,108,15.2570463339662,0.737124639260287,0.972403649505435,-0.0759374166241593,-0.0707505583520375,0.0238050990894566,0.0208578646528463,-0.232098861172867,0.043513829230913
55,109,15.2564788605302,0.73641118805187,0.972615351327592,-0.0735746117801125,-0.0753705231900676,0.0235008114043831,0.105473408928722,-0.448867272728887,-0.0264982288268267
56,110,15.2558903113118,0.735575487612623,0.972823117717101,-0.0730601040124347,-0.0801203943314255,0.0233183003370214,0.20517573568887,-0.432734444963126,-0.0438657134411755
57,111,15.2551920970042,0.734567392114547,0.973023011639778,-0.0777489996079132,-0.0857012192527934,0.0234610168305239,0.277628983273522,-0.169211409768383,-0.0256638813883235
58,112,15.2543325097973,0.73339955487841,0.973238286204729,-0.0837712204948714,-0.0907519168318285,0.0248459243234708,0.396999778310877,0.0113186569886297,0.074068624880477
59,113,15.2532601375908,0.732052325332708,0.973462006748573,-0.0934195943439534,-0.0991126784431668,0.0267630246207385,0.455148054527229,0.11262207242384,0.125728445528619
60,114,15.2520420606464,0.730603410561384,0.973681329574614,-0.103624256296506,-0.107171821157984,0.0272464319434848,0.532735286626028,0.155876402493597,0.0352051912440912
61,115,15.2507043192707,0.729093482112348,0.973885592889,-0.110225750486547,-0.112130708699564,0.027393593448855,0.502739474522842,0.21664346526808,0.055862150357577
62,116,15.2493586890921,0.727632952111931,0.974071831548259,-0.112285908337158,-0.1144622900761,0.028252040800965,0.456640085318166,0.261740320817993,0.184516264971957
63,117,15.2480393674808,0.726203575684785,0.974264304734841,-0.112888490743971,-0.116173098200525,0.0315745760516841,0.51743424981241,0.41971164502469,0.433307662177821
64,118,15.2467930871737,0.724812112597367,0.974484368220946,-0.111945259496547,-0.117640811168446,0.0375105270787184,0.559587951807046,0.490055854391166,0.709404847445713
65,119,15.2455886373906,0.723407525501062,0.974744981626498,-0.111667521628828,-0.120237202995205,0.0449240698297013,0.626221445617131,0.417118570957484,0.879646453571241
66,120,15.2444357867375,0.721975772017854,0.975072884431044,-0.109604084949395,-0.125625749765358,0.0543254192325593,0.587642608177962,0.270833459011067,1.08199480679674
67,121,15.2433344940621,0.720499456433257,0.975448153047255,-0.106279662658229,-0.132284169006852,0.0634135104927528,0.457912698006042,0.203841795625524,1.160850445691
68,122,15.2422638458707,0.718956130281393,0.975837425309754,-0.10145491101527,-0.139726034065597,0.0706381298332523,0.264851085865307,0.160692842895502,1.07491654562838
69,123,15.2412059902609,0.717337307520031,0.976230696791902,-0.0989707907500676,-0.14846432252258,0.0748987881165312,0.335161932087974,0.259876304489772,0.84778322392486
70,124,15.2402044497341,0.715738606946017,0.976582930252985,-0.0974344309093871,-0.153346817769382,0.074617620284209,0.314896302380967,0.272174557514457,0.442612692991385
71,125,15.2391376030432,0.714102782522313,0.976879130711983,-0.0989679316311442,-0.155451555685173,0.0693496150502772,0.457014322814113,0.299737448643258,-0.0257924343984192
72,126,15.2380597601416,0.712514460883713,0.977087026079053,-0.101715068811735,-0.154086427158656,0.0585164254959406,0.630733151483716,0.256806540451848,-0.55815435583453
73,127,15.2369009653572,0.710967552586202,0.977177745175396,-0.106566582207591,-0.149178448089908,0.044776883204244,0.591097687718611,0.242756044860259,-0.855507142678784
74,128,15.2356513440157,0.709504714685247,0.977157022556896,-0.111268269774743,-0.14233190041019,0.0302670643385214,0.421448139687234,0.298683020455722,-0.987433915653008
75,129,15.2343311454659,0.708166401456208,0.977047306557072,-0.112029606660987,-0.132154731455415,0.0157468244264725,0.439732153071003,0.40482161924589,-1.08823731647227
76,130,15.2329202052047,0.707001030838224,0.976946850000531,-0.113698336168303,-0.12177430638315,0.00368613868405011,0.248721406950794,0.324450941105638,-1.00142826161564
77,131,15.2314977435367,0.7060914794739,0.976926533375889,-0.112217215203434,-0.107094509413563,-0.0070244661554897,0.153458735422532,0.408171638250848,-1.08062459808387
78,132,15.2302717007567,0.705550101018352,0.976902002047439,-0.105326080920689,-0.0876364777834827,-0.0150739470494195,0.184792280736407,0.539285239136317,-0.885891608102804
79,133,15.2293455085834,0.705399123900494,0.976959012530142,-0.0955193938505944,-0.0651432090369694,-0.0189283280477501,-0.0499391712914178,0.497225444284264,-0.684448405546767
80,134,15.2287970717795,0.705629216021439,0.977094408685987,-0.0817202779872766,-0.0388898827188896,-0.0204020704293102,-0.115866836908663,0.496984406722581,-0.569556881863863
81,135,15.2289055162864,0.706444856125099,0.977341505362794,-0.058393154738547,-0.00851927350422536,-0.0188580921956924,-0.349091809884355,0.523299335431929,-0.408221701546107
82,136,15.2297789176778,0.708017060042583,0.977708485878592,-0.0278231656412187,0.0323524152377793,-0.0154006813734467,-0.347983432696834,0.642676409777572,-0.326309677172205
83,137,15.2311044444491,0.710088282586794,0.978145739980974,0.00323206016157181,0.0719228023688381,-0.0115552996667694,-0.407302513003575,0.685685479360682,-0.300596863591813
84,138,15.2325634456427,0.712296932206026,0.97858095140666,0.031006713556272,0.107784321920612,-0.00874488650652036,-0.379232617862564,0.609792043675632,-0.374876677537661
85,139,15.2339488163607,0.714377563543263,0.978976529253895,0.0510474832236097,0.13389130660211,-0.00751851042798587,-0.284777245442265,0.712159525573945,-0.422851354861528
86,140,15.2351713131549,0.716229648090775,0.979323981203955,0.0646492124517975,0.15112935734271,-0.00739756564230009,-0.341537860690641,0.579204840984066,-0.485539345930984
87,141,15.2361861567081,0.717791842759498,0.979611897058074,0.0730833792933356,0.158849163624918,-0.00921423686514071,-0.251791358820082,0.431238063271442,-0.616333920100059
88,142,15.2370111410636,0.719070288979482,0.979823007398124,0.0777031271603114,0.160112968288599,-0.0129010348319769,-0.0899281361173826,0.240414606807528,-0.73466763751568
89,143,15.2376685005217,0.720079183818958,0.979946919111721,0.0793266344353619,0.155340319288434,-0.0177541638006221,-0.0207520991050684,0.112612624829347,-0.76045925975865
90,144,15.2381881753098,0.720869130629242,0.979984648146007,0.0794269831814242,0.147767323521689,-0.0235759733809611,0.076228726992969,0.0555987519607047,-0.809918762857303
91,145,15.2385775140134,0.721470946400073,0.979939371234906,0.0761945052152967,0.137435791450276,-0.0301416353583994,0.129393818409835,0.0382099536799018,-0.858036769743638
92,146,15.2388674098837,0.721982059346539,0.979827655055394,0.0716640311749117,0.129917998699376,-0.0361692874529209,0.17721169433189,0.12608068593138,-0.840101852266623
93,147,15.2390738033882,0.722472095484546,0.979661728641066,0.0659807744523124,0.123982765280075,-0.0424672197299897,0.212185963464179,0.246512291336388,-0.869641308188589
94,148,15.2392284782,0.723003828670732,0.979446200346515,0.058981955992647,0.120595287847905,-0.0476235582745575,0.123762469520958,0.260523541214161,-0.752073178517083
95,149,15.2393495494405,0.72361066851745,0.979191795936973,0.0522731134624477,0.119378425258769,-0.0520568113116984,0.0645807331114053,0.244529512982381,-0.669082077236828
96,150,15.2394635417682,0.724289192426429,0.978908836231505,0.0473523400907948,0.119239380556739,-0.0554648120150363,0.0583311995774764,0.227470573154662,-0.583967634647165
97,151,15.2395948581275,0.725044454699119,0.978606360222996,0.0461042041406817,0.119547692623788,-0.0575116519533468,0.092830619569198,0.330424663402413,-0.475567060051724
98,152,15.239751257587,0.725893307943807,0.978298633438033,0.0471528328662162,0.121109649437585,-0.0581209767368617,0.154560164538945,0.271574026873691,-0.35175696549554
99,153,15.2399246670257,0.726840980346387,0.977992314055541,0.0480672143575655,0.124632683281028,-0.0580302738412113,0.278416089755924,0.360656385060292,-0.289406159486568
100,154,15.2401398292271,0.727912472358533,0.977687853766867,0.0513726630945597,0.130235054821174,-0.0568094910815075,0.378953803858441,0.394930632072666,-0.163621771409182
101,155,15.240396008162,0.729122666862084,0.977387681777996,0.055271679861963,0.136895878077222,-0.0536691785510489,0.278543356084866,0.410241730892603,0.0949458273336445
102,156,15.2406908965341,0.730465882685072,0.977097694164817,0.0584441716694636,0.143591555364511,-0.0491224169190596,0.0739661599449558,0.377750123267826,0.281461125286577
103,157,15.2410559720009,0.731912224008522,0.976816489313399,0.0604933508517482,0.148163479337179,-0.0449924342465219,0.137323790810325,0.312545756299027,0.269944651141833
104,158,15.2414467193892,0.7334568507899,0.976545686342988,0.0616350281201321,0.154142493717253,-0.0392033332786668,0.232420827135637,0.414589780727183,0.441382185725794
105,159,15.2420622344975,0.734992317874216,0.976112486709775,0.0669217898460722,0.155029195459278,-0.0361093058769914,0.203047391927634,0.324672212480334,0.4945163719531
106,160,15.2425538856875,0.736608948189169,0.975880496092022,0.0677483812918547,0.153851706030041,-0.0305253007572359,0.194622361498518,0.130464571010399,0.522472150871769
107,161,15.243059548146,0.738220290996647,0.975660090976146,0.068676317478286,0.153010305305534,-0.0259957769005202,0.247995371467488,0.0718332080867476,0.462248710711904
108,162,15.2435649173823,0.739818468915478,0.97546476761432,0.0685153082864521,0.15197014447418,-0.0211455797973069,0.222832147541038,0.00906798314222023,0.438616111438496
109,163,15.2448416652397,0.741325366449692,0.97523072355747,0.0723670927329927,0.148323473490171,-0.018930370999541,0.232715116748757,-0.0557489837480017,0.308932548932437
110,164,15.2453685063216,0.742812524905539,0.974963336166722,0.0687420946195651,0.14538683212388,-0.0190877644037568,0.255436241476683,-0.103496237508296,0.128749802581089
111,165,15.2459782734352,0.744233560251895,0.974666322969041,0.0624831047147975,0.14236755265859,-0.0206677467803204,0.395118729939597,-0.0610219351000573,-0.00110709217399654
112,166,15.2463962658231,0.745680667052296,0.974348553186487,0.0549113721251091,0.141809933150528,-0.0223284899488637,0.407775358029014,-0.0654477053764794,0.0101728110751418
113,167,15.2466698926418,0.747087383450523,0.974022473822577,0.0480158734179878,0.141196443073636,-0.0234469029581835,0.520955027525364,0.0425168296451384,0.0471661094127372
114,168,15.246759039634,0.748541467721228,0.973702239991618,0.0395083219533475,0.141656696232088,-0.0237220220517801,0.579281702282377,-0.080539432706551,0.0923172527806178
115,169,15.2467809899302,0.750026745526923,0.973513772319753,0.0315719850235048,0.140319463472816,-0.022211319901445,0.580608357621057,-0.151709256638118,0.127105342153608
116,170,15.2466814050608,0.751498188270291,0.973448607482803,0.0236345862387722,0.138958114259522,-0.0180036147460093,0.406884037947719,-0.122056651140303,0.259859385470788
117,171,15.2465461633061,0.752924987615383,0.973488590904798,0.0158888389763306,0.136333948354459,-0.0106643152231103,0.25345582119516,-0.0575976095618337,0.462941016729295
118,172,15.246374452307,0.754285058427897,0.973633248101355,0.00778547829802898,0.133958915307634,-0.00178657118946981,0.075743143590813,-0.0225930212454118,0.569557892593659
119,173,15.2462328280564,0.755541629898157,0.973867706565086,0.00355064576546636,0.130293079181986,0.00720037359369466,-0.0646032773326299,0.0652354240134873,0.574487536815049
120,174,15.2461613445439,0.756730535211708,0.974175360827057,0.00179727385567264,0.125424842145683,0.0156034929646299,-0.0554262268754352,0.0400735370832973,0.513006225079597
121,175,15.2461675228936,0.75791164850313,0.974500412575086,0.00186648612101333,0.120987103862757,0.0239529952783261,0.0479664005808249,0.0102539381906855,0.5608584911175
122,176,15.2461974750791,0.759160722999533,0.974911437952436,0.00393137947264916,0.120883189653796,0.0312702269529055,0.192381150827505,-0.119335187889798,0.576427858551769
123,177,15.2461767655032,0.760461535999377,0.975394262663195,0.00629064880905649,0.123839439487611,0.0370256038611184,0.256465989513494,-0.11228170316767,0.500903176319729
124,178,15.2462614766278,0.761822313770465,0.975929737740594,0.00960937314234792,0.128934819038301,0.041694712041692,0.148341049704239,-0.0436320083537029,0.43334970041702
125,179,15.2463834598705,0.763175969436878,0.976521224138508,0.0124741298159508,0.132912744126723,0.0456721991670646,0.102328372196508,-0.0124500466984443,0.328465688452529
126,180,15.246531245343,0.764468819650639,0.97715751842962,0.0157058725676586,0.13466469079021,0.0488128206378406,-0.0442926025958552,-0.0232432836338756,0.241208958206223
127,181,15.2467216026189,0.765679360319394,0.977840253738769,0.0181111931609812,0.132955888397363,0.0516589347595389,-0.24068579336786,0.0588493176156064,0.143677899280612
128,182,15.2468804137477,0.766752574906203,0.978601657454942,0.0184980621082893,0.127418748659191,0.052532847540302,-0.308291145575223,0.0404169266349423,-0.0787549265426291
129,183,15.2471431069364,0.767673790128078,0.979378756058195,0.0198118041938984,0.117716693650976,0.0527434994585888,-0.305606705966948,-0.0440792461464695,-0.186664712754762
130,184,15.2475140897917,0.768426570030997,0.980144216733475,0.0245126413072595,0.104259848211345,0.0527970972279401,-0.26799236081653,-0.186948337485127,-0.204139051547468
131,185,15.2480462148005,0.769031196754725,0.980742597927605,0.0305647578871778,0.0882392860482087,0.0520676847870164,-0.223241238189852,-0.334517344601549,-0.161929192874225
132,186,15.2487817769794,0.769482210136633,0.980564172350617,0.0406709060828788,0.0710471503622784,0.0505739826594036,-0.220229722599782,-0.350875724531011,0.0108142952369101
133,187,15.2497890504984,0.769942306955272,0.980486381624936,0.0540448471818886,0.0571656053082148,0.0504214140441162,-0.108921318761999,-0.408045197338196,0.178746490323399
134,188,15.2513580599507,0.770707451606919,0.980449370443096,0.0755048929901211,0.050720103102059,0.0512015450193565,-0.102216804946029,-0.558980668856345,0.308952927419784
135,189,15.2535845357281,0.771836193272652,0.980381011609858,0.103314134096685,0.0521637120243494,0.0524095993850947,-0.115568997495087,-0.618645059077183,0.469735767804952
136,190,15.2562121735947,0.773148257528899,0.980252434378767,0.13100210743417,0.0575559910181577,0.0523323325080458,-0.0665021050087395,-0.624412732967976,0.470152092290046
137,191,15.2589274749033,0.774458081566152,0.980073309293827,0.154091888111817,0.0611360184081586,0.0510640577304244,-0.0676643954474604,-0.621384280148569,0.396601975646161
138,192,15.2614662398422,0.775684103432315,0.979853896469611,0.167816645040028,0.0632249006506944,0.0471979983489338,0.0271337708207659,-0.654957142711041,0.212509057130766
139,193,15.263675534883,0.776784302737011,0.979593323247298,0.171554953119812,0.062863223890438,0.0408480800481697,-0.0312658487515337,-0.749310076520012,0.0106138072329541
140,194,15.2654814284301,0.777714939211499,0.979294292024269,0.168887507521274,0.060665382435845,0.0335634646394013,-0.058566165235012,-0.629292961509387,-0.116057259468602
141,195,15.2668994229371,0.778511168514295,0.978966200455034,0.162767491816066,0.0586639025602207,0.0262046622517843,-0.124955831865477,-0.607484697236813,-0.171818771596743
142,196,15.2679369849894,0.779173970630022,0.978628639023534,0.155125730570086,0.0557000613318092,0.0196861156969401,-0.189431279567032,-0.578410959633574,-0.160119677092843
143,197,15.2687099393859,0.779741380729545,0.978292401958157,0.145602697055435,0.0525528517515391,0.0136982443321256,-0.203116040024663,-0.483127207009698,-0.169501665700628
144,198,15.2692274152105,0.780231774801559,0.977967109617949,0.134116981477705,0.0491713636311716,0.00771422978141683,-0.159453392406482,-0.439771601622474,-0.226314270876805
145,199,15.2695455809736,0.780678908466169,0.97765679434377,0.121821259271391,0.0447024076694699,0.00243216739905463,-0.201885839314468,-0.356465357179983,-0.248486139501936
146,200,15.2697026334237,0.781099582891256,0.977357781815035,0.107245291767118,0.0412838679623153,-0.00328048810337015,-0.113321112032181,-0.363095034931786,-0.331008068847419
147,201,15.2697735584897,0.781479800361193,0.977070550212416,0.093323195813199,0.0363277329652304,-0.00734389569619641,-0.183046296923832,-0.247385659581069,-0.270127529489748
148,202,15.2697845077183,0.781819836759747,0.976794726907117,0.0791538461820488,0.0322997733691401,-0.0115273858004325,-0.186738526965244,-0.268771051117537,-0.303351746527556
149,203,15.2697597433115,0.78210493557704,0.976529899930673,0.065776087514493,0.0268522600635445,-0.0150813791177555,-0.286510220172881,-0.286187808200231,-0.297878298834976
150,204,15.2696923072445,0.782330354524465,0.976271173825265,0.0538652630831846,0.0211149478216592,-0.0185183576009931,-0.325279888028541,-0.291295219734766,-0.321906963570134
151,205,15.2695999832182,0.782470237470366,0.97601290976517,0.0423931967912584,0.0149896449766168,-0.0224293305031562,-0.308193867809757,-0.353286193015998,-0.38735246424439
152,206,15.2692294218652,0.782282665633903,0.976200484531674,0.0243242139007358,0.00425739388677943,-0.0197120544492797,-0.418571892722159,-0.319496830000124,-0.403687687462448
153,207,15.2695385356145,0.782662410066429,0.97606971414952,0.0188941580235096,0.000250774470348087,-0.0211757477104577,-0.415105948005147,-0.399545141428113,-0.436697972576538
154,208,15.2687251495257,0.782244636643276,0.975944864226497,0.00179233785381443,-0.0103450808920859,-0.0229282024050963,-0.325568162581628,-0.417464782560768,-0.455320225969629
155,209,15.2682408025821,0.782025159251479,0.975845858642165,-0.00961125812216247,-0.018812514551167,-0.0238227901044506,-0.321284711553305,-0.385973404035358,-0.436236744745288
156,210,15.2674922298996,0.781573878835977,0.975772451141236,-0.0241285076009423,-0.0284431636414866,-0.0244846717119268,-0.262576539520518,-0.349751313872818,-0.44882851311445
157,211,15.2668063390953,0.781126770959723,0.975720881091385,-0.0337818645676206,-0.0354285093014018,-0.0240532869017229,-0.236888137911114,-0.320267278739252,-0.391839067134099
158,212,15.266082352507,0.780588410456395,0.97569023204444,-0.0420875572684719,-0.042477415954203,-0.022880401441171,-0.251461971854149,-0.227137201003989,-0.34642465610406
159,213,15.265388891583,0.780010025592407,0.975677919665771,-0.0483458989878488,-0.0489543800125546,-0.0208553161504496,-0.275366546558517,-0.116148611206345,-0.279886477290845
160,214,15.2646915299466,0.779378507024248,0.975681791917556,-0.0535993835253965,-0.0550905475428957,-0.0182808328308552,-0.416296124339666,-0.120997910107297,-0.224260941936714
161,215,15.2639625462458,0.778698649179768,0.97575476112374,-0.0601735966859576,-0.0614325836997371,-0.0155290756506104,-0.455570694879553,-0.190943190025094,-0.215936697235541
162,216,15.263177511301,0.777932881960714,0.975970682046932,-0.0656730679484251,-0.0681446262320036,-0.0121508102288888,-0.506226209256057,-0.228076394487336,-0.16287549642629
163,217,15.2623740657988,0.77702137766089,0.976278866400266,-0.0701292147391456,-0.0774525935256553,-0.00320561148119938,-0.333485290876991,-0.421992650021748,0.246681864144013
164,218,15.2616464213444,0.775987828131567,0.976604044845721,-0.0721147790966646,-0.0875167144027469,-3.88764810423665e-05,-0.354389736813874,-0.519880856176555,-0.311164674215042
165,219,15.2612323929317,0.774950768412581,0.976716362533191,-0.0696404378871654,-0.0940748043693604,0.00648789225554708,-0.227988545107357,-0.485532654396056,0.354450942777993
166,220,15.2611842214311,0.773933684288289,0.976689491258697,-0.0611142326487761,-0.0960364746398769,0.00994180675301343,-0.247019547803564,-0.185921925650765,0.255139511665851
167,221,15.2613688432156,0.772986104655696,0.976072611440778,-0.0488923853284366,-0.0951244065287804,0.00553146122352579,-0.330630562349088,-0.163509283502395,0.386809550763506
168,222,15.2615268548378,0.771968876234365,0.975689837720263,-0.038955426713616,-0.0951686443807373,0.00463882343615174,-0.376766742043864,-0.0921263234331384,0.371578733117861
169,223,15.2613802489067,0.77083952493042,0.975252852740635,-0.0314809948016377,-0.0960155333520648,0.00477717029738212,-0.425847052240397,0.121904523730516,0.515498631555423
170,224,15.2613209146612,0.769690155456367,0.974928237277601,-0.0280834808433854,-0.0955202640198181,0.00533281623729299,-0.278049346717272,0.219299964120047,0.504538579374463
171,225,15.2612237958059,0.768497021295127,0.974582786306279,-0.0248466485761305,-0.0943887779342432,0.0053905522014332,-0.130479462330201,0.287865009793202,0.481031033614967
172,226,15.2611260826378,0.767257154456263,0.974256837558374,-0.0206710241293219,-0.0944938109910014,0.00662253101256508,-0.137247173727789,0.382716556244796,0.573563885124143
173,227,15.2610265482257,0.766014349293001,0.973964490370054,-0.0167597976261565,-0.095926161730468,0.00763386481626896,-0.11749926474728,0.481360957678299,0.563518702068443
174,228,15.26094533533,0.764817938050808,0.973711478764478,-0.0171345133313061,-0.0969464496140455,0.00799320958126255,-0.113135182290359,0.309067518234431,0.460933389274514
175,229,15.2608432775525,0.763686769901712,0.973500580795498,-0.0208958229923362,-0.0989865730107291,0.00917737638626848,-0.0612347286427603,-0.000465968332883816,0.446871723798344
176,230,15.2606531558754,0.762559437866336,0.973330717687669,-0.0265125950507993,-0.102513875255727,0.011810049270511,-0.00329656613667253,-0.36075944577114,0.524309469571328
177,231,15.2603407632833,0.761311132652381,0.973207659984168,-0.0318949738300688,-0.107437645062222,0.0165942251119622,0.191073624512928,-0.317173139354541,0.699388930700499
178,232,15.2598722153048,0.759917347082387,0.973135913667529,-0.0408095723336782,-0.112849800454198,0.0222296268600389,0.25850454819856,-0.254781196464751,0.784513280978463
179,233,15.2592190649675,0.75844646362793,0.973117901505881,-0.0522275120276075,-0.118298011386173,0.0278408471400181,0.458347139755733,-0.0400634532374029,0.801732577890757
180,234,15.258449839762,0.756928564024679,0.973153476883883,-0.0605972021711085,-0.120545276246998,0.0338996666134905,0.509811891495794,0.0152329983133947,0.839325215989765
181,235,15.2576060363135,0.755429163383742,0.973245748826965,-0.0647920217154171,-0.118523548224665,0.0400758509877563,0.529875683297135,0.325972108583127,0.900857899883422
182,236,15.2567603733935,0.754055147722436,0.973389011560989,-0.0646817007537128,-0.115814843690964,0.0461356848463529,0.496483216720716,0.403814539275688,0.923051993774465
183,237,15.2559409199995,0.752827485099632,0.973584442110758,-0.0640511182517254,-0.113411916574294,0.0520601192186711,0.510204090358759,0.347711075293109,0.938002896987871
184,238,15.2552240357478,0.751706241400858,0.973811860818365,-0.0610813432175943,-0.112776072857597,0.0578668716052183,0.411389808181142,0.247670510630632,0.941130646938993
185,239,15.2545105335176,0.750591073540212,0.974049206983848,-0.0596361002061217,-0.115318533945743,0.0623417332126281,0.417962165041951,0.134969860716218,0.852376493679433
186,240,15.2538276442836,0.749381628436017,0.974287691243965,-0.0577996458865332,-0.120413786583867,0.0665714557754652,0.353332269667259,0.063198615489195,0.853932858906726
187,241,15.2531529224295,0.748026456765883,0.974512701964786,-0.0584705181553101,-0.127231063423804,0.0684957432789192,0.32952608242649,0.0807166506022161,0.676060284724529
188,242,15.2523593710996,0.74646171736585,0.974725648243657,-0.0629308113390876,-0.135155055022446,0.0662751935813208,0.421329955165334,0.159078953527971,0.300007057749597
189,243,15.2515166561264,0.744736841248687,0.974924822567966,-0.069457737068883,-0.144316845698759,0.0603603635216641,0.557559404804703,0.194559224697736,-0.083093735304665
190,244,15.2506348057589,0.742972379113001,0.975081796857014,-0.0777698138972283,-0.149811549855284,0.0514236011306239,0.466606758782507,0.332042609612014,-0.366286269914817
191,245,15.2495881855383,0.741165441897128,0.975189014418293,-0.0840279818848337,-0.153783145212185,0.0392669021564389,0.637391846434296,0.262548330661626,-0.730073147460465
192,246,15.2484931469879,0.739467168735709,0.975238233393596,-0.0895621955332003,-0.154168510408181,0.0263503462993241,0.584123642917775,0.158883138342628,-0.947785219796218
193,247,15.2472556488418,0.737862901477502,0.975188467318563,-0.096820023661316,-0.152337905830678,0.0118994216081876,0.394353279407975,0.0448895839899493,-1.12260457078425
194,248,15.2459471714461,0.736456360554973,0.975052609084532,-0.102693873292105,-0.144435300146215,-0.00107741669927621,0.250988495149955,0.0904638315567631,-1.06127480217102
195,249,15.2446292443481,0.7353819573587,0.974892179581915,-0.107262264573064,-0.131131656287284,-0.0100482601094201,0.0657545695174879,0.246153686828408,-0.831037183920571
196,250,15.2435236841293,0.734765570698048,0.974866629008327,-0.104353765696401,-0.110060635971811,-0.0157278821786159,-0.106808583527222,0.232379187379036,-0.734210761917951
197,251,15.2432060563103,0.734836464773649,0.974970622203236,-0.0875589793281677,-0.0801724910422703,-0.0189126388918966,-0.227327254115845,0.246810615974717,-0.681144045183106
198,252,15.2439115044348,0.735612939202633,0.975199228916804,-0.0556807613191509,-0.0445705479691382,-0.0179191583781947,-0.260986088793812,0.29941877682609,-0.450969514442354
199,253,15.2452988052477,0.736898242907024,0.975548130627707,-0.0174777044772135,-0.00583195569148866,-0.0150776438314207,-0.22399696769519,0.352403160469235,-0.370140602443178
200,254,15.2469438146567,0.738371989494378,0.975975296638955,0.0184806313415807,0.0287024172546782,-0.0100189034853416,-0.327060604787509,0.491834225340547,-0.211543413867024
201,255,15.2485605785564,0.739851401528927,0.976445610978295,0.0500597517166168,0.0567581334766595,-0.00410429354736857,-0.411685103517632,0.508025462430924,-0.12355316799228
202,256,15.2500516754557,0.741175165929766,0.976933523145739,0.0740427038274884,0.075893872877449,0.00132575901918848,-0.365743418876082,0.57965738587865,-0.0880473283876673
203,257,15.2513135553408,0.742307382924127,0.977420755387342,0.0884039892892253,0.088233843402875,0.00635853621299885,-0.301384357626625,0.549508376383441,-0.0319657478377346
204,258,15.252326346534,0.743261016586549,0.977894479728766,0.0950344479054845,0.0957876977129752,0.0100681363409734,-0.427229664080656,0.496596509818561,-0.0857044053365734
205,259,15.2530757578653,0.744028870150428,0.978331779715941,0.0948548827764547,0.0976536428728221,0.0116708465602001,-0.307312401738893,0.437224788195718,-0.217898852041673
206,260,15.2536089276,0.744619156769109,0.978708135769582,0.091935951373218,0.0952278236388194,0.0107906382242249,-0.175366545781701,0.287454773504726,-0.3932277932783
207,261,15.2539737914715,0.74504402372136,0.978999005933038,0.0872656235304529,0.0903987906725666,0.00744747406576906,-0.06595747240442,0.244829715356919,-0.539689831155528
208,262,15.2542176575769,0.745334722680813,0.979196141903679,0.0814510639281057,0.083315045254108,0.00233149943608896,0.024598493435655,0.153276233523896,-0.64509415222151
209,263,15.2543716852494,0.745523149823479,0.979299500154032,0.0747993328954571,0.0761812784199122,-0.00411034631887148,0.0301136431762866,0.154248321788909,-0.735973539961911
210,264,15.2544564107494,0.745619263973089,0.979318147243922,0.0683255204447374,0.0679602654011488,-0.0106744285967838,0.154961361828439,0.108493890979189,-0.748438653893265
211,265,15.2545135351556,0.745675348941904,0.979261098770885,0.0619988044228269,0.061698953691589,-0.0177038885536998,0.14899251970388,0.0891244728616344,-0.789480078346224
212,266,15.2545575356311,0.745741629206269,0.979136008987925,0.0554001506655653,0.0574898045889344,-0.0245244693135164,0.118799587377609,0.189557896689005,-0.758862493149429
213,267,15.2545928295546,0.745852988552745,0.978952643759945,0.048343840460233,0.0545079674056387,-0.0316698724377677,0.170264810903453,0.148136927156979,-0.781754329771545
214,268,15.2546028352558,0.746025879687832,0.978717732055476,0.0416224266928546,0.0542689265591797,-0.0384265968042051,0.237841217357377,0.142688225188043,-0.760825622377691
215,269,15.254610581265,0.746280905785575,0.978443612075523,0.0371305335762489,0.0555787561665922,-0.044206499131792,0.216208303689437,0.14430426208203,-0.700583551498017
216,270,15.2546294934494,0.746660196973106,0.9781393691099,0.0333808212156193,0.0589915275329409,-0.0490584597230195,0.188820690305448,0.140619397634002,-0.633166286301969
217,271,15.2546874735246,0.747179415314734,0.977815256307727,0.0330353729844927,0.0636083760167374,-0.0524065003805686,0.159905344266821,0.130202410425208,-0.517150287682853
218,272,15.2547656286275,0.747864096562389,0.977476259811412,0.0312403850574776,0.0705094959424927,-0.0558776052579132,0.136434154554465,0.147921746947291,-0.51821495967844
219,273,15.2548781159408,0.748684975928382,0.977122181160416,0.031356690114851,0.0789026072099079,-0.0582325000656604,0.234479467546661,0.236331684729884,-0.43275256693008
220,274,15.2550310076266,0.749629459039538,0.976758926977332,0.0329736936329951,0.0884627648746108,-0.0590895019617754,0.290146782159692,0.298468089759562,-0.297403559990975
221,275,15.2552114811722,0.750647633880996,0.976428430336439,0.0356424422743451,0.097800253566202,-0.053671836624348,0.34435708749626,0.424075795865136,0.27102683135354
222,276,15.2553822718905,0.751731978405073,0.97610893630349,0.0381449169297292,0.106672340398121,-0.0555413389206425,0.502296823422072,0.343441142443772,-0.445468935596262
223,277,15.2556393121051,0.75283793261741,0.975776493279753,0.0416460331117405,0.112851422390337,-0.0499940089489612,0.130143146569838,0.247855756389765,0.397305218354206
224,278,15.2559296707734,0.753996280780388,0.975472526127521,0.0451132809906582,0.11996294970853,-0.0432578047124074,0.200980900293294,0.525278101058869,0.531652234949089
225,279,15.256239072851,0.755180935767189,0.975200736625468,0.0465830331182995,0.122298270611497,-0.0354391242067073,0.0933948866894167,0.402761084230745,0.639218526896765
226,280,15.2565426362025,0.756394139365381,0.974958891415398,0.0462917599382736,0.122263627075713,-0.029412401353893,0.136063272667321,0.244241668491842,0.494906074773247
227,281,15.2569880150276,0.757703021447742,0.97458682527488,0.0494618216792852,0.122936340811534,-0.026846273873182,0.181919697657121,0.296319830473807,0.436409649251985
228,282,15.2573629093914,0.758980873528904,0.974355214166111,0.0495515309548775,0.122054506456758,-0.0227723201356351,0.299103681593965,0.319661309128833,0.448666791480133
229,283,15.2577616089745,0.760212352343552,0.974162705164133,0.0507715871886185,0.117933002639971,-0.0180053662908691,0.177042532112376,0.271202688255213,0.472845072051856
230,284,15.2590062567595,0.761664501383009,0.973931852091585,0.0587451814980582,0.115232237171961,-0.0160214334110627,0.14979314141781,0.134387924459322,0.315063663153247
231,285,15.2593469953686,0.76268972636876,0.973672141123312,0.0548667203498133,0.108780397621516,-0.0164378055715772,0.218227943141416,0.0102712141342312,0.111407004951035
232,286,15.2599241651984,0.763834384587877,0.973476787342909,0.049666144025895,0.104032446103136,-0.0186013854069752,0.25844671896652,-0.0276438369334145,-0.0958504236872969
233,287,15.2602494793595,0.764804344644332,0.973337088974367,0.0426342499485648,0.097473749093409,-0.0207482896513874,0.220898071193217,-0.00226164384213381,-0.150893683318422
234,288,15.2605834935711,0.765766425825752,0.973225887030312,0.0371665499976063,0.0929359574613085,-0.0219768869516845,0.339741422059691,-0.009857011637186,-0.125276301304707
235,289,15.2607876463397,0.766738879031416,0.973145611870356,0.0326729586978207,0.0917181696426129,-0.0220216256681258,0.281137584201378,-0.0779629057639739,-0.0628869920848354
236,290,15.2608805045897,0.767764770746656,0.973101139138161,0.0286139020707144,0.0933544829106293,-0.0212158807407655,0.297050594773488,-0.100457055578069,-0.0444355715292513
237,291,15.2608632939257,0.768849541367964,0.973102651374449,0.022486608039891,0.0970242544452263,-0.01989705018154,0.19705413698473,-0.0813759741414789,-0.0324939040750453
238,292,15.2607748641639,0.769967285206464,0.973160370326339,0.0147215478528576,0.101778497644898,-0.0184060730723808,0.11173453254082,-0.0930495529533051,-0.0654718505973014
239,293,15.2606629934519,0.771085812690417,0.97327632911731,0.00860512870148843,0.104746314030511,-0.0153428371638007,-0.0837499831524682,-0.053375542152396,0.0140512947817555
240,294,15.260548755713,0.772174431045075,0.973461412098774,0.00360541275225815,0.106747412109125,-0.0111311839982474,-0.116710657160385,-0.0394559740403998,0.0649326543329867
241,295,15.2605237410932,0.773262550308719,0.97366474348107,0.000574242857023155,0.10732035384685,-0.00557775568394395,-0.0978300573255849,-0.0224540254575547,0.151485045589597
242,296,15.2605014875926,0.774361548216693,0.97398311326362,0.00157768622833895,0.107811286619591,0.00316766333256641,-0.0186559889931257,-0.0787951472649245,0.412753134039281
243,297,15.2606176454259,0.775512399669248,0.974419766031461,0.00312714559777637,0.10890092236859,0.0139454450516419,-0.124358971965992,-0.193841141514244,0.620755992570863
244,298,15.2606855189461,0.776661021002915,0.974981270288907,0.00555838676854678,0.110711773760899,0.0259692101800885,-0.200567994978322,-0.126564423476603,0.755214977226001
245,299,15.2607000394698,0.777813188007273,0.975617648855617,0.00632734103911119,0.112520406293208,0.0369145372801178,-0.169062819284097,-0.0373653478603936,0.759209150542673
246,300,15.2606776174756,0.778921742726304,0.976294644699188,0.00598832094462103,0.112819849900907,0.0455662813730354,-0.0139148306198758,-0.0293130547751365,0.608150369765458
247,301,15.2607052772141,0.779969447066685,0.976993105939316,0.00841761827551994,0.111524707167732,0.0517747068775882,0.0655789647418564,0.0433548249103549,0.469053793720226
248,302,15.260865927614,0.780959084134307,0.977743469674026,0.0120969601056716,0.107907787569857,0.0563410418902028,0.0516554129481382,-0.0231397284081415,0.308310107946905
249,303,15.2608384152857,0.781802566360151,0.978559400966577,0.0129126837180974,0.101886976341403,0.0597784613830873,-0.0616039966728824,-0.0644527111566107,0.193160704853839
250,304,15.2610676598949,0.782576779545166,0.979390479057071,0.0172393045363993,0.0960796948539354,0.0618992750790368,-0.159117687092082,-0.119250635802727,0.0699618367053659
251,305,15.2613548636136,0.783197705486391,0.98021249825358,0.0215482238366426,0.0879439684262408,0.0620173843076901,-0.25387959023234,-0.0828349030384269,-0.112307208598021
252,306,15.2618102684205,0.783694525683714,0.980992209740626,0.0292291100831874,0.0788698892407635,0.0607230024173875,-0.245264724837266,-0.0951233885291981,-0.228767311075634
253,307,15.2623459482737,0.784075507015034,0.981688611405826,0.0380200715304883,0.0680144219102527,0.0581939930346937,-0.261296765653298,-0.179512060186691,-0.293621432187077
254,308,15.2629303956081,0.784350546284773,0.98226285420745,0.0454551639852,0.0548645398538758,0.0545291255288999,-0.185735102841181,-0.261485964523224,-0.297549389764959
255,309,15.263598025014,0.784558935532738,0.981711159658385,0.05165362691729,0.0432714846183919,0.0481120436666113,-0.150964871624848,-0.313088570137102,-0.16577773762255
256,310,15.2645232422462,0.78482107566669,0.981315448711734,0.0624896835393459,0.0336929792324941,0.0434277128728472,-0.150556946143261,-0.456843337688933,-0.0275699106263769
257,311,15.2662441530338,0.785484550154209,0.980956911221245,0.0849352626016027,0.0329114897761261,0.0392201921909349,-0.0748495212820927,-0.591766480730453,0.0649592626809976
258,312,15.2690923587056,0.786688124792983,0.980563869067241,0.121250619864308,0.0403974071844233,0.0364586812960169,-0.0831949506850843,-0.723316934263972,0.287580849673357
259,313,15.2727218854821,0.788225476182541,0.980146948284067,0.164162684649394,0.0535220327391782,0.0351423844944849,-0.203143629707589,-0.703430605043895,0.460348661198643
260,314,15.2765199698109,0.789835062721203,0.979725372898411,0.200842083661812,0.0644417979326428,0.033296164023642,-0.186251176295961,-0.720573832040021,0.397159732543819
261,315,15.2800173289124,0.79133477533599,0.979307228387341,0.226156805718091,0.0702189478169145,0.0306449870054856,-0.160853310411636,-0.835383106625894,0.319719247184457
262,316,15.2830365309719,0.792619715917176,0.9788941635561,0.238632725992606,0.071498662181869,0.0260559232264552,-0.0957474402281025,-0.823004583314375,0.148588362265693
263,317,15.2854723878014,0.793642743045215,0.978488323306542,0.239097191748563,0.069075484465291,0.0207498564343162,-0.0612860321314866,-0.678960527417751,0.00980528685288425
264,318,15.2873457872286,0.794434668391374,0.978093411833844,0.232591019778662,0.064112001690933,0.0153783265843268,-0.0812810288206059,-0.691232309349159,-0.0376174955528224
265,319,15.2887291468159,0.79504357423136,0.977705624442127,0.219893886442236,0.0572102224349162,0.00954828235559856,-0.159201905150581,-0.50841173846822,-0.176593518789861
266,320,15.2897049178322,0.795463622942488,0.977332216772901,0.203950047345411,0.0504089272117841,0.00377897350159025,-0.134496322546182,-0.511867274028496,-0.193826265584257
267,321,15.2904537612334,0.795744497530451,0.976974263867746,0.186285033685932,0.0428645388990058,-0.00159421433312458,-0.143708512050823,-0.460216440591138,-0.237259181723737
268,322,15.2909494013833,0.796002667320133,0.976629996015571,0.168964556206238,0.0363646399623126,-0.0062026936085083,-0.079635779749649,-0.410186740911922,-0.235166373926235
269,323,15.2912399221143,0.796204466730216,0.976300804069485,0.149220265766732,0.0323224897606144,-0.0110215205434418,-0.0938314617138206,-0.267152198846993,-0.28489466782242
270,324,15.2914232000566,0.796362777297761,0.97599387274815,0.130880821691239,0.0285762167945529,-0.0146081562304965,-0.125629031051151,-0.161011399818606,-0.236899672163504
271,325,15.2915655894284,0.796497000158269,0.975706009782361,0.113930845753441,0.025008250761797,-0.0182208796351661,-0.0842317439058554,-0.145893780288152,-0.280278154859492
272,326,15.2916894339825,0.796628563795234,0.975433931079488,0.0977555004929922,0.0212165265287962,-0.0216114842065201,-0.0938143327099285,-0.247781405205358,-0.306479823383874
273,327,15.2918271346982,0.796724143073321,0.975177696144315,0.0841399531804698,0.0162637937310746,-0.0242307510554529,-0.0994628021735138,-0.246933005488058,-0.26924680639839
274,328,15.2919390394733,0.796735075414925,0.97493903053235,0.0708855745835827,0.00977111273916018,-0.0268138146657059,-0.014723241561416,-0.365992289036681,-0.291393764094919
275,329,15.2917995713934,0.796550734909915,0.974883785241621,0.0540739676952625,-0.000419077055643732,-0.0241477229896937,0.0285903059755409,-0.373006535219012,-0.25102287056067
276,330,15.2925337221685,0.796768962324877,0.974786901459744,0.0500201385324029,-0.00489776806339727,-0.0233862953345544,0.0439448569764953,-0.399842578700578,-0.21409681754751
277,331,15.2922301293987,0.796386814099493,0.974731645774473,0.0368107191328983,-0.0145633121698875,-0.0220760848167353,0.0243313000891324,-0.350824269495386,-0.184396490374136
278,332,15.2923865725827,0.796174489483054,0.974720645526702,0.0308007964065135,-0.0217469019427886,-0.0200240943372778,-0.0238836225307941,-0.330866366179071,-0.146940011775718
279,333,15.2923785091414,0.795832369220381,0.974750494385504,0.0244594975770045,-0.028726825174094,-0.0173150711211729,-0.042230739188331,-0.261309010167446,-0.1202849219237
280,334,15.2924927239706,0.79550084011341,0.974811446531709,0.0205882999231055,-0.0334657078388821,-0.0145191461666591,-0.119887369777821,-0.264589888186531,-0.125020014844183
281,335,15.2925752938502,0.795071299487217,0.97490796917573,0.0157098477424198,-0.0397047764913615,-0.011749546192885,-0.139007467552153,-0.235312131409838,-0.143419277184703
282,336,15.2926680676816,0.794559725624547,0.975098762603992,0.0119431406648005,-0.0453149328389709,-0.00845139910153629,-0.188027518493806,-0.214838571615715,-0.114393137301483
283,337,15.2927364506071,0.79385416071001,0.975315066486952,0.00642788633112153,-0.0546741818531151,-0.00218196057828682,-0.161463848858011,-0.306429684414353,0.131651092950689
284,338,15.2927617907037,0.792962578146352,0.975546390048123,0.00240503798348903,-0.0645596853295571,0.00312784823030214,-0.119307806508596,-0.337723891809609,0.019798844292398
285,339,15.2926357093327,0.79195511647142,0.975655978348575,-0.00386975126227011,-0.0746761830358264,0.00799558468052983,-0.19014590297037,-0.277323156147094,0.163545481071388
286,340,15.2922244310918,0.790836661502987,0.975666456064568,-0.0146414817895068,-0.0824502703876462,0.0122135513551312,-0.155706730635541,-0.167355765467768,0.299348870533041
287,341,15.291838077296,0.789709362378169,0.975146622656047,-0.02094088410404,-0.085791004613759,0.00817601813680751,-0.122710955847461,0.00705642206661308,0.293684768792675
288,342,15.2911855028773,0.788526770205655,0.974866529013296,-0.0267310178203529,-0.0879065142296818,0.00890969765707009,-0.252528120977933,0.0801048886694971,0.455880242234369
289,343,15.2908873383511,0.787425602997113,0.974535430593465,-0.0286862717928518,-0.0877013924939399,0.00890220229348691,-0.330183537857095,0.222401461933332,0.449433457019535
290,344,15.2905259030603,0.786340179688694,0.974163630033019,-0.0335263552946657,-0.087603342265482,0.0074873935669332,-0.264464045551337,0.307374546621041,0.360214087276331
291,345,15.2903068300765,0.785297158433439,0.973777748798122,-0.0340860361860164,-0.0870446355059849,0.00595074524967821,-0.0911979343835619,0.319210532596212,0.314445149589609
292,346,15.2901505107466,0.784250514574163,0.973385912999854,-0.0263035318613217,-0.0868385480109275,0.00570147365663512,0.0243237140674183,0.277900404509911,0.432478139484193
293,347,15.290045746365,0.783149773531285,0.97299047765959,-0.0183864742814134,-0.0879577688378172,0.00568101446819792,0.0657036837214732,0.33499773382336,0.467315078780236
294,348,15.2899479421685,0.781992937433689,0.972586518216409,-0.0140611052084586,-0.0877217769319748,0.00454080521975502,0.0458269328618753,0.459645977231022,0.374965519619851
295,349,15.2898985777758,0.780788839773353,0.972169698517311,-0.0102451651685382,-0.08857194621723,0.00335547806599744,-0.0717039966709206,0.469878944323794,0.369612302407391
296,350,15.2898745160986,0.779558751149526,0.971743836333439,-0.00884879548292384,-0.0907039188275797,0.00187473431673987,-0.0272216425467667,0.319515582415609,0.307350691263093
297,351,15.2897906219612,0.778298847021769,0.971308121180622,-0.0130178056879717,-0.093490046426154,0.000405826416825325,0.164072586447441,0.164490000705342,0.232263597309268
298,352,15.2896544278715,0.776990781907413,0.970987088777066,-0.0174410708209495,-0.0967885138704664,0.000159063860838912,0.136019809256235,0.130714999012506,0.243651732576974
299,353,15.2893834827383,0.775594696833914,0.970700786868037,-0.0209277423244848,-0.101536507071181,0.000902543736137135,0.0741462866005721,0.0367157533302236,0.344324504314159
300,354,15.288995770261,0.774228013574447,0.970452417087007,-0.0284298057273062,-0.104626558418016,0.00290113195013057,0.12723629247015,-0.158664997528993,0.424902672165996
301,355,15.2884299180698,0.772808839165982,0.970269878527679,-0.0383533808322738,-0.10716886712294,0.00835152396343527,0.254135942694709,-0.0519414495773755,0.641512336321237
302,356,15.2878657159435,0.771445703810171,0.970171702865365,-0.0444280503642465,-0.108218308661411,0.0158766658626815,0.248146998990745,0.302858836504158,0.878572167814307
303,357,15.2872611070035,0.770140539226829,0.97015686822489,-0.0489145437418319,-0.109267286076555,0.0233366755538891,0.193948377541867,0.516887073261532,0.912466049437607
304,358,15.286651285501,0.768982644933414,0.970211073194068,-0.0528225549983413,-0.110034186450488,0.0292378834947136,0.401836350529946,0.491700814566061,0.763502606580453
305,359,15.2860541217613,0.767913030078283,0.970344609676322,-0.0543968862343228,-0.111254967975414,0.0342951739112998,0.440013114846222,0.266515283782477,0.669378742250834
306,360,15.2855716904641,0.766843843814183,0.970557954408551,-0.0489273717964978,-0.114327465561783,0.0399330239308827,0.47247821855943,0.112050421365799,0.735285180693219
307,361,15.2851724328509,0.765692433965828,0.970839384807778,-0.0437095749573522,-0.118350877533787,0.0447622470421949,0.575689005211607,0.0737859338429842,0.648086699969425
308,362,15.2848371248971,0.764441448571665,0.971164354115383,-0.0378852962172115,-0.123151648126938,0.0483250771319908,0.499094696147434,0.0623262547157088,0.563353695819429
309,363,15.2844763912082,0.763095212905658,0.97150878785416,-0.0354899055166498,-0.129233241173937,0.0496799369233641,0.448049190670724,-0.00236466130896159,0.384286002634656
310,364,15.2840466737129,0.761653696228579,0.971856296297098,-0.0345558198883875,-0.135180178826361,0.0497849718757784,0.513678004096525,0.0143187060459062,0.282652347583749
311,365,15.2835583066506,0.760158484245406,0.972199390842659,-0.0343382597078875,-0.140522112902073,0.0487695102231516,0.469426479708722,0.0506246803190237,0.207267331082641
312,366,15.2829997090898,0.758625942488958,0.972532488759292,-0.0337766544520407,-0.145155134741201,0.0466369076092513,0.459560843936927,0.0229798774683828,0.135241555929686
313,367,15.2823738955574,0.75709077548041,0.972854133737446,-0.0337659027602036,-0.147519883244664,0.0435838375258616,0.484847030210211,0.0481314296873135,0.0427407818899105
314,368,15.2817441648361,0.755617776634758,0.973179948071737,-0.0348530653078866,-0.146696883722982,0.0394755555842583,0.379163971821056,0.114843550029287,-0.111983519855967
315,369,15.2809606312745,0.75414991817416,0.973506589561217,-0.0399639147144989,-0.143718690694456,0.0336925367275745,0.367115373129212,0.1588003111883,-0.334887893204176
316,370,15.2802071490493,0.752790651676052,0.973837548022519,-0.0435013746363698,-0.137648119503598,0.0279569359818916,0.279603151797668,0.184142092679643,-0.432217821338558
317,371,15.279387643067,0.751514112403222,0.974175240820397,-0.0504139869097427,-0.129743291808693,0.0209082482197414,0.121328715571112,0.188776958973257,-0.641177952662841
318,372,15.2785461164736,0.750365737362341,0.974516604618294,-0.0550309654571336,-0.118347762711775,0.0143491356985879,0.141093565381778,0.279495932190703,-0.718095416681453
319,373,15.2776309131322,0.749317092565545,0.974769698623469,-0.059443049881322,-0.106522420912328,0.00846236432025255,0.155011780888165,0.270010183308945,-0.732349075148044
320,374,15.2768149187312,0.748511231187059,0.975023830642826,-0.0625350886941426,-0.0937339146630174,0.00283091514639336,0.0799851341013284,0.19315860579794,-0.759112955383322
321,375,15.2759923470176,0.747863228287731,0.975275731107813,-0.0651615835078062,-0.0791865242423828,-0.00298052551654326,0.00651202427705034,0.138319201004659,-0.821618556926536
322,376,15.2753643254785,0.74745842066064,0.975558427019045,-0.0620048071846486,-0.0630962204584587,-0.0066310507574265,-0.0503720742577488,0.198952847405632,-0.739914045740413
323,377,15.2751994360647,0.747359848631617,0.97589203244688,-0.0513833953913177,-0.0428902364023315,-0.00838982792073037,-0.173672780608242,0.218432950330984,-0.6872458364783
324,378,15.2761911891796,0.747857208273186,0.976258709989973,-0.021542503358891,-0.0165413887784152,-0.00913551378105286,-0.273846056514329,0.323165163056143,-0.660929489555245
325,379,15.2786626987749,0.749032884549306,0.976616959588432,0.0295166579299043,0.0155245819857446,-0.00898236613511352,-0.278071490633909,0.340786288476188,-0.567099027044286
326,380,15.2821127480262,0.750654086004528,0.976933024845816,0.0881402772794481,0.0473396007235533,-0.00864714940179896,-0.346490169932412,0.287135789235636,-0.48740305099356
327,381,15.2858369789264,0.752419642349437,0.977196569478476,0.140491217356069,0.0750903730637451,-0.00913660571716253,-0.301127627374318,0.342022290855575,-0.444813672451091
328,382,15.2893706911299,0.754115833718031,0.977424406510434,0.179828064520434,0.0966158814381194,-0.00928786389375331,-0.274283995181544,0.323795328573321,-0.360126030872587
329,383,15.2924843890483,0.755612659976702,0.977622110922111,0.20593198911568,0.11085428429956,-0.0092864579200796,-0.242267255321995,0.3862121564518,-0.287759935832644
330,384,15.2950850904898,0.756868408600385,0.977793259186813,0.218063340270386,0.117806211143267,-0.00969903457101479,-0.31114007777349,0.265293568584524,-0.302028968999454
331,385,15.2971849463787,0.757873703661751,0.977931515472103,0.221362061614126,0.118560593040677,-0.0110456957302918,-0.279032850678596,0.156539041839219,-0.378491879234839
332,386,15.2988150709624,0.758656369549658,0.978026140265306,0.215895869167299,0.115402849724396,-0.0138524248484942,-0.142117941250437,0.0963701044053887,-0.49764226096161
333,387,15.3000827316783,0.759255277714845,0.978073159160303,0.20857082334794,0.109598513623963,-0.016365595676329,-0.0563717788839507,0.0887775141039622,-0.458923153923112
334,388,15.3010616133809,0.759711317209998,0.97807701327707,0.197127225069432,0.102488899649548,-0.0193085159530798,-0.0133442101724489,0.146289221143111,-0.473638631713688
335,389,15.3018013635496,0.760056164127418,0.978038844950983,0.182378367038053,0.0939755344539957,-0.0225470915723384,0.0168320851905704,0.112375337776473,-0.492303660051019
336,390,15.302348946628,0.760325470941515,0.977958279763339,0.165612156361938,0.0867398071739599,-0.0265171193261618,0.074727689906416,0.144124564886654,-0.543748091314449
337,391,15.3027746932032,0.760541396098072,0.977837663413902,0.15052843248633,0.0800288234436719,-0.0297686879146178,0.092433724451903,0.265121171968918,-0.459904543195176
338,392,15.3030921860452,0.760770676643399,0.977687658820193,0.133801237032063,0.0771032175851724,-0.0331192936353098,0.169322213517382,0.299325835596613,-0.475499547018813
339,393,15.3033307367737,0.761066538947323,0.977512949919986,0.118279776830317,0.0762528636904286,-0.0357216512758645,0.105668377977322,0.367520358102814,-0.418059715376198
340,394,15.3035107284983,0.76145986695416,0.977316318255578,0.104316370529515,0.0761766794217646,-0.0388804295685821,0.0887837180533098,0.254868825032158,-0.468756338418494
341,395,15.3036428107491,0.761940643514244,0.977096143399129,0.0946071756736707,0.0771240356817934,-0.0418636326564198,0.147512484971882,0.263201422026606,-0.459200654189939
342,396,15.3038094214456,0.762515708274872,0.976844214904712,0.0857910101997736,0.0793224679977148,-0.0457155204721495,0.108797274155146,0.18150976551404,-0.534981376427263
343,397,15.3040120812471,0.763196045211198,0.976556461827244,0.0794636576714226,0.0833182876894082,-0.0500315470040547,0.112335697623263,0.235381913486718,-0.574781764335865
344,398,15.3042564426673,0.764007969197643,0.976231165248188,0.0747225603270129,0.089533708934867,-0.0549601383891768,0.102222944237581,0.199916561857319,-0.640777006325764
345,399,15.3045533174592,0.764947048796244,0.97586014693997,0.0724229985988936,0.0973229774026551,-0.0603199032060488,0.125835140946888,0.236312541133042,-0.682862144437879
346,400,15.3048980085181,0.766006354630689,0.975443674363315,0.0711966921092787,0.106347820132814,-0.0654161991310545,0.152598244484651,0.213678169082129,-0.663199245081884
347,401,15.3052894552803,0.767220173674126,0.975016171871413,0.0719648976883902,0.119453915880419,-0.065326473791683,0.200932877139413,0.455017001981359,-0.202107328845645
348,402,15.3056848212752,0.768584142979069,0.974572537495916,0.0727595210518195,0.131473105329373,-0.0720364416080149,0.504935178370809,0.492103714691805,-0.916084730718113
349,403,15.3061490810616,0.770100997710818,0.974091332223554,0.0749917112590693,0.142380094497484,-0.0695164184698256,0.126713370871457,0.330014295977579,0.103907672710266
350,404,15.3066657020425,0.771749465434282,0.973628058401753,0.0783149505301299,0.153190347668536,-0.0680990904543359,0.229426582770399,0.425504800615045,-0.0526632742938708
351,405,15.3071789790808,0.773457235540567,0.973162904548915,0.0760740277715962,0.159169738215376,-0.0638488233420019,0.275337716105874,0.316628808565089,0.22538948403967
352,406,15.3076383028403,0.775185801364636,0.972724499708224,0.0718997721029644,0.161512044206455,-0.0582001536438432,0.461786112607006,0.25260645902733,0.381033644287776
353,407,15.3080399012491,0.776837952704009,0.972321531491748,0.0668633601618001,0.1564696694704,-0.0518673169113899,0.415894168898644,0.113689923041261,0.487077577303452
354,408,15.3084043987282,0.778391556681073,0.971961060596308,0.0635822562065796,0.149039882296069,-0.0434853904570191,0.354136189461655,0.0536643732737346,0.72596710693358
355,409,15.3086941055202,0.779855928982668,0.971650353781444,0.0587185914347854,0.140729388494507,-0.0349151252849912,0.459361619893048,-0.0720780725502078,0.795832515298205
356,410,15.3091909212303,0.781215157345252,0.971497269048556,0.0608303515113848,0.132283011971849,-0.0239586050345747,0.51360435444346,-0.291850870229259,0.88309893522407
357,411,15.3094093549655,0.782811246036595,0.9712862413787,0.055305159080185,0.128515859870405,-0.0156141702803601,0.564409864886678,-0.290594429903593,0.809786577230073
358,412,15.3099744277729,0.783888027178393,0.971156281110437,0.0518694751089909,0.119272063776042,-0.00518581590399098,0.413889009178971,-0.304184465632909,0.959616210710457
359,413,15.3104464116374,0.785213649384912,0.971062391989787,0.046419220961122,0.114218724359411,0.00434129261069955,0.257736394120081,-0.356430994370106,0.929138824115696
360,414,15.3109053710107,0.786339560586665,0.971152303909208,0.0392970843385267,0.109048603083471,0.0140061603939179,0.148645276223239,-0.233050638936564,0.850579124942182
361,415,15.3112254613444,0.787422711435392,0.971372345851608,0.0310583041101593,0.106152293764936,0.0223504774689597,0.0956671215491847,-0.089155106292634,0.692714794229742
362,416,15.3115023720029,0.788378433952656,0.971640542114147,0.0262633714657449,0.103376201046968,0.0286818790488106,-0.226025676208016,0.0697118357727152,0.530553298511634
363,417,15.3117416810016,0.789272734895145,0.971920469174506,0.0238408337611595,0.102623370421297,0.0304259749466682,-0.32741694344346,0.286301090531395,0.180631312847481
364,418,15.3120037941717,0.790133082582911,0.972188015937315,0.0256379517411779,0.103492791023373,0.02826481074423,-0.0759349970621431,0.319273143881041,-0.140547185495865
365,419,15.3123608397854,0.791032166740211,0.972379476717468,0.0312384857180727,0.104593820914447,0.0255380075773047,0.17592582957474,0.229207786095139,-0.204689832728743
366,420,15.3127828572527,0.792014451966111,0.972609913628985,0.0392957113420373,0.105874603453799,0.0239863359023686,0.403118641829055,0.0983362454464105,-0.130148261479068
367,421,15.3133071061972,0.793091993906025,0.972908953089144,0.0478776320156406,0.108245401106538,0.0241141210164633,0.412656032949376,-0.0559531745110233,-0.0285182247121253
368,422,15.3137963902811,0.794188026922487,0.973293887694611,0.0523416643120296,0.113356172886676,0.0254115053163239,0.239060729657077,0.0494180476783834,0.024071757354847
369,423,15.3142533060754,0.795298891270683,0.973738459070142,0.0534265177250475,0.11726653492405,0.0273448413908031,0.109344943859176,0.225235040589297,0.0673488385843266
370,424,15.3145946297121,0.796455301246712,0.974244091370417,0.0483988278332443,0.121771734507383,0.0290644368263831,-0.0152951165755895,0.13200702331077,0.0161680902720741
371,425,15.3148657859175,0.797610550950939,0.974791467194638,0.0416280360136974,0.122635696806311,0.0308506253771148,-0.110348358352773,0.131441252410731,-0.0356646176883922
372,426,15.3150323373868,0.798683757251739,0.975431765897119,0.0344539127620713,0.118832527138099,0.0328671344396194,-0.222101677374296,-0.0361637580569276,-0.0472414088648522
373,427,15.3152315822649,0.799663499205955,0.976115994962387,0.029182086890613,0.112153473386284,0.0347112855832888,-0.289454343717355,-0.140367561556117,-0.0886373599624386
374,428,15.3154945510041,0.800502138289376,0.976822157483364,0.0278780534508625,0.101313469833511,0.0368490942382294,-0.272608720986202,-0.323277678850543,-0.0897115654885367
375,429,15.3158978889174,0.801181358043373,0.97751580890885,0.0303472078251708,0.0871402007906116,0.0386601576028731,-0.251310411726104,-0.442841477152385,-0.0891413413207218
376,430,15.3164638579673,0.80172952455539,0.978058680807809,0.037782511410701,0.0707754049158994,0.0400315515757713,-0.168269281704694,-0.498065075511389,-0.00316858600751607
377,431,15.317205975241,0.802189568032386,0.977839131486879,0.0482050348732309,0.054534492874558,0.0397397972854161,-0.122352606635349,-0.538918559916123,0.120396637705783
378,432,15.3182418674191,0.802657075950397,0.977691001151705,0.0652660651871622,0.0418572729972919,0.04034486117879,-0.0807430171260284,-0.455690092477866,0.255819384524083
379,433,15.3197974799175,0.803355544407535,0.977618801668208,0.0875234948552706,0.0356404022243753,0.0412296504704515,-0.0482568111565026,-0.474877374290427,0.318555726238228
380,434,15.3220422301914,0.804430582312755,0.977318942377749,0.116509739676445,0.0385311149899013,0.0405770453794517,-0.0512476783794049,-0.388596033298583,0.36071345582298
381,435,15.3245741077669,0.805709611532391,0.976985707480795,0.142444761694029,0.0471130632523451,0.0397891373114694,-0.0484063324481588,-0.341613762189486,0.426970007931453
382,436,15.3271802360313,0.807088740050114,0.976619714281902,0.162159576989239,0.0570373658872164,0.0382234996643549,-0.0866165815790526,-0.374048466496258,0.406463341178141
383,437,15.3296025636964,0.808419289136298,0.976234310617423,0.174725250946422,0.0651229218274735,0.0356679040154861,-0.196043646002705,-0.496937296217638,0.351377427939921
384,438,15.3317279028941,0.809643453555417,0.975837247676587,0.178043833761138,0.0708935295759785,0.0317711970212235,-0.304485099475516,-0.529179064340758,0.242373021996768
385,439,15.333509859703,0.810717290672098,0.9754360538579,0.175028631456951,0.073230374732838,0.0273175221512506,-0.378458863397208,-0.51695074902749,0.167221641631236
386,440,15.3349817828472,0.811651342980239,0.975042689109515,0.167966530404455,0.0745824890219386,0.0222575822714689,-0.399892236724002,-0.570501809434265,0.0641525669155217
387,441,15.336200140923,0.81243324119608,0.974667144782574,0.159719648648053,0.0723736261724866,0.0174359375798632,-0.351589072290245,-0.475700580971365,0.0220320675743588
388,442,15.3371323735447,0.813451156946275,0.974240522161697,0.150807908105325,0.0677927923531283,0.0122939682360071,-0.247870086682797,-0.51616081709142,-0.0781323128242464
389,443,15.3379294574733,0.813954277753821,0.97391224157252,0.139297287841593,0.0624780999041784,0.00789425285123068,-0.177670779313502,-0.452713234357273,-0.139456461948828
390,444,15.338610466685,0.814363861501627,0.973628289436293,0.129103004904299,0.0567125518464319,0.00420521610934477,-0.174968685619021,-0.437493764340601,-0.121525202139823
391,445,15.3391749785977,0.814677717611721,0.973385447306437,0.117301014455086,0.0489424162060785,0.000514683857357387,-0.100745051458872,-0.394334679780677,-0.148964049077632
392,446,15.339636229708,0.81487934454948,0.973181760006455,0.105073385453276,0.0389085987931931,-0.00301845538669494,-0.14730290623284,-0.428740517264219,-0.180870708821713
393,447,15.340005014856,0.814968151452398,0.973017507276258,0.0923722599784286,0.0270333576749077,-0.00596670112476163,-0.152753509310897,-0.393857061436809,-0.210548349338059
394,448,15.3403264662609,0.814970701196629,0.972888267462758,0.0814733913261791,0.0158243511445973,-0.00880823893738454,-0.178158913775981,-0.487880521705383,-0.258174722326349
395,449,15.3406206620029,0.814911339030119,0.972786775412559,0.0703892795521272,0.00548809668017296,-0.0114832099091024,-0.246588851888001,-0.49597989035612,-0.304868453590939
396,450,15.3408984767985,0.814783367818593,0.972705941436986,0.06023623945014,-0.0046394486531954,-0.0143343859737252,-0.248807824940536,-0.519584677261028,-0.375903159301535
397,451,15.341185442411,0.814603042166713,0.972637722989101,0.0525788042008335,-0.0135338949070034,-0.0166934576025327,-0.267350683893881,-0.509656142572088,-0.374802843289334
398,452,15.3414749189619,0.814367410210294,0.972578624791415,0.0458575168023405,-0.0213668085892358,-0.0188196807318358,-0.312510761780642,-0.451542202148782,-0.372405953001234
399,453,15.3417696509416,0.814089094839588,0.972525964535082,0.0396589597608032,-0.027935897387767,-0.0207113886778692,-0.284831665566667,-0.391083003647834,-0.381051982252309
400,454,15.3420680688141,0.813763784303939,0.972476593224047,0.0352601842780056,-0.033380969325907,-0.0217910498665809,-0.307434980352815,-0.305260564304818,-0.316936403182426
401,455,15.3422856663746,0.813398917886475,0.972432444964516,0.0298384526568649,-0.0372303663531621,-0.0229044753630611,-0.309837503558423,-0.278104475904078,-0.319226275512136
402,456,15.3424933974618,0.812997741954304,0.972387333830032,0.0249659163444923,-0.0414019661979324,-0.0225695292671736,-0.323871531464771,-0.227546106158355,-0.192701771514554
403,457,15.3426435310066,0.812557290008545,0.972349460738114,0.0191017770027675,-0.0442674346609337,-0.0222416848449209,-0.361780554877279,-0.317253450264768,-0.18052076071922
404,458,15.342703027357,0.812049622678963,0.972316947383887,0.0119663064903158,-0.0492214527454429,-0.0213236755456516,-0.361525497588753,-0.287842847579394,-0.137452174629729
405,459,15.3426575422611,0.811475348403737,0.972315214811324,0.00652662511953011,-0.0546033666786464,-0.0164888507568228,-0.333379778673978,-0.403681737476054,0.26576245686459
406,460,15.3424946564594,0.810844324166408,0.9723284134626,-0.000858226656716713,-0.0607621181404233,-0.016925584388178,-0.370970081106199,-0.502076990179188,-0.250297460280402
407,461,15.3422405748724,0.810182519635457,0.972346032881899,-0.00796430433887412,-0.0654694507796138,-0.0107282332529504,-0.418718618939349,-0.451369547427211,0.462583900919238
408,462,15.3418742974931,0.809470995619036,0.972389232518511,-0.01522008105958,-0.0677094713818221,-0.00638033418855916,-0.334214604351036,-0.244353057731269,0.274945347395497
409,463,15.3416566921645,0.808747576807377,0.972040763896168,-0.0157664641794149,-0.069255249614557,-0.00713434439636425,-0.309897033914732,-0.144775584631166,0.413599740777469
410,464,15.3411887938738,0.807721679625065,0.972027223242606,-0.0197076768537984,-0.0718587939290278,-0.00369703682871233,-0.284275277233739,-0.0614594157546371,0.418892525046479
411,465,15.3410189143323,0.806836021931281,0.971990219696666,-0.021590132582394,-0.0731758611139599,-0.000171026873369095,-0.162944269312465,-0.00159586429502643,0.467775531207257
412,466,15.3406112868412,0.805708428774325,0.97192381574388,-0.0273011359306196,-0.0761528645196387,0.00274536013027077,-0.276760921834488,0.214993956711626,0.496599312677692
413,467,15.3402808122124,0.804516215112061,0.971834309851786,-0.0333288459024034,-0.0798211362069922,0.00417555944152565,-0.158109866445525,0.407801484669033,0.384826153452639
414,468,15.3399813607891,0.803287684554698,0.971726402090217,-0.0356471093101509,-0.084473886234939,0.00474313162783205,-0.159849390352674,0.339712085602424,0.347360547580158
415,469,15.3397456848515,0.802111726106822,0.971606419337206,-0.0349326699300613,-0.0880295595681845,0.00487188081772132,-0.0996024955689729,0.300390755611828,0.327483300268557
416,470,15.3394824050489,0.80098062305161,0.971482218460756,-0.0363996682035802,-0.0902190989823155,0.00474732168109539,-0.0920375338456455,0.213947880923013,0.277587326262747
417,471,15.3391890935727,0.799865261203358,0.971358924562691,-0.0357535661847776,-0.0930118127681101,0.00552364577862165,-0.107476967685966,0.120708318986469,0.368672619366841
418,472,15.3388275675676,0.798726597946927,0.971257393234527,-0.0370641717148002,-0.096403077341209,0.00849082296840879,-0.0685299427560537,0.0391882056392735,0.514376129751165
419,473,15.3384828653968,0.797505418135667,0.971188930605815,-0.0370671661457762,-0.0987639989468135,0.0130529193474634,-0.0263258839298026,0.0600867567192559,0.62808686332261
420,474,15.3381456502453,0.796157925934601,0.97114803279985,-0.0356511493156046,-0.1024463137336,0.0177491338917334,-0.217130967135134,0.159021221668741,0.694104961609632
421,475,15.33782644848,0.794743931735579,0.97111793524281,-0.0379930602929888,-0.105783068022911,0.0202908177878376,-0.418610121922549,0.166831411636396,0.523504925551175
422,476,15.3374240778637,0.793321423559751,0.971081342732077,-0.0439546890695246,-0.109847354658051,0.0211356075420739,-0.0726050035550821,0.178194633341616,0.324820147226494
423,477,15.3369771085159,0.791888758340773,0.97101833499782,-0.0504120815870001,-0.115245006334471,0.0207281741572606,0.253368656398179,0.00123816043888349,0.161047119468743
424,478,15.3364607266107,0.790412107114801,0.970917357971044,-0.0542795294512456,-0.121661904257708,0.0204162761652613,0.247792445027038,-0.0505935113935577,0.177754172146939
425,479,15.3358827942546,0.788899291647958,0.970767922979873,-0.0539279515090642,-0.126108998400538,0.0193333511076718,0.214277758979988,-0.0911315809983632,0.18442787189377
426,480,15.3352560271001,0.787355799858368,0.970525459481054,-0.0535787244987392,-0.130758701434315,0.017729084668532,0.173963312858117,-0.120206898854574,0.198316796972205
427,481,15.3345919088224,0.785825251482243,0.970454028273613,-0.0560685597442203,-0.133472982779172,0.0165975685863739,0.20417532764702,-0.144787937649866,0.0996835869063373
428,482,15.3338142180197,0.784260577998484,0.970423577391862,-0.0602623678554657,-0.137161718839776,0.0156951156684855,0.289292624695383,-0.150956038052707,0.088964770459806
429,483,15.3329735886697,0.782680826131468,0.970408886861358,-0.0652758645073822,-0.141065561138084,0.0144178536375959,0.41487371725159,-0.116103562384455,0.0174991450987051
430,484,15.3319816072898,0.781051554783385,0.970424987783766,-0.0730108345421935,-0.145340832771895,0.0140587138540641,0.515706139789009,-0.0931854781051699,0.0332419362131234
431,485,15.3309763428531,0.779439156275506,0.970465654616289,-0.0782861323332599,-0.148514733425099,0.0148324977148476,0.497570104975501,-0.00485853330468719,0.147910326951545
432,486,15.3299322852515,0.777761446141345,0.970533819649341,-0.0814166268293839,-0.153110589185006,0.0171370806587083,0.431724036356798,0.113057107676981,0.301539788768779
433,487,15.3289281715508,0.776063961623479,0.97064163316002,-0.0830527193811495,-0.156434064781791,0.020203972370142,0.374840153601092,0.183298150502841,0.366028867962115
434,488,15.3279968016847,0.77435237697743,0.970767123671912,-0.0808810696894721,-0.159113051935109,0.0238164309573674,0.216764994296645,0.236997224061357,0.456504259197631
435,489,15.3270923924447,0.772642296220728,0.970898003824877,-0.0798578077959129,-0.160593897868102,0.026262568216851,0.206624402628442,0.193404646053329,0.356437306343341
436,490,15.3261961247121,0.770948305178213,0.971040966679318,-0.0788685528640898,-0.161867273092241,0.0287031332019887,0.198502371292335,0.238227969001155,0.355770311613938
437,491,15.3252902062031,0.769295787079437,0.97118673124695,-0.0782649396724557,-0.161098110639674,0.0297829300061664,0.17911857889238,0.169913253896855,0.267416015127006
438,492,15.3243482933064,0.767689270364429,0.971312598076826,-0.0796453041868489,-0.158905127861187,0.0290672687238134,0.0186072632290453,0.145179834820277,0.120067934387399
439,493,15.3234287624649,0.76618600077012,0.971420386781246,-0.0821650018261816,-0.15415669196656,0.0265431979034037,0.0786766654827425,0.247046170252411,-0.118264161023319
440,494,15.3223908496265,0.76471462081201,0.971515770924835,-0.0882957079328977,-0.148988468697468,0.0229113832745131,0.00621701319478705,0.286307927153099,-0.256028935727532
441,495,15.3213169983034,0.763411737597656,0.971802180552785,-0.0945159304603698,-0.140063476762066,0.0192939887713867,0.0307928834845733,0.375827550282061,-0.377197293089207
442,496,15.3201891030799,0.762212436749448,0.972106827134336,-0.0986263801852315,-0.130079458319408,0.0146430234093579,0.0102056069685902,0.33708560678469,-0.544008519728185
443,497,15.3190358531291,0.761179915647052,0.972421271199445,-0.101266993847008,-0.117907695532965,0.00964815670621771,0.0734466218568098,0.272274731296318,-0.653684604734094
444,498,15.317955197918,0.760351178634779,0.972717207048847,-0.0999220577538073,-0.104143389576727,0.00436086426059997,-0.0220050012456532,0.26209351829323,-0.673041996200402
445,499,15.3169675702588,0.759752833906915,0.973015277622883,-0.0964555703095294,-0.0876420862179955,-0.000964044212995067,0.13249363121502,0.319754507002536,-0.777050000322723
446,500,15.316138657938,0.759373850351731,0.973319258050351,-0.0901021672629749,-0.069341277768762,-0.00580913703008746,0.0412044639720589,0.398198055617409,-0.796523984913726
447,501,15.3156729758186,0.759302357350854,0.973656427301968,-0.0765797230984704,-0.0484499054313107,-0.00859430369258267,0.0410205752451495,0.470629573542273,-0.701822482371112
448,502,15.3161577414451,0.759839839532132,0.974055931996913,-0.0500255852569552,-0.0209034086312047,-0.0093019003057555,-0.187777038638014,0.427872065274087,-0.607084432828158
449,503,15.3178211218995,0.761076694042572,0.974485927840857,-0.00898408900636696,0.0125880225918499,-0.0100453951077365,-0.23677052922067,0.411825274797677,-0.66423424064751
450,504,15.3201891601206,0.762784361565978,0.974872909140655,0.0354936158717405,0.0487957105405116,-0.0114514275531377,-0.154422876324015,0.446066481219949,-0.719025452073111
451,505,15.3227206795182,0.764676649212741,0.975189365150499,0.0765633528739492,0.080730883892384,-0.012107049430137,-0.260833395858352,0.396625380906122,-0.555458913380477
452,506,15.3250748109874,0.76652016236693,0.975452477545862,0.107623610576093,0.105689818580308,-0.0126239675768616,-0.305559851157436,0.46674447925924,-0.429874447398109
453,507,15.3270929967597,0.768171704762775,0.975679948454537,0.127833975263304,0.12319598173465,-0.0121238116520717,-0.347129847327062,0.540331223209299,-0.282456857199017
454,508,15.3286964113493,0.769574371806272,0.975874227356188,0.136787618058087,0.132201227276846,-0.0122804548153861,-0.306224484784951,0.476071965073544,-0.302607069801986
455,509,15.3299123945906,0.770727491425664,0.976026662323891,0.138444075612122,0.13434109947039,-0.0133648900477215,-0.23634591606686,0.401533092861791,-0.356461744625496
456,510,15.330796152183,0.771649340505622,0.976126471815251,0.135104693311202,0.131458122907656,-0.0153656718198962,-0.178523410414196,0.309278306371566,-0.406472209350874
457,511,15.3313971137181,0.772357155107149,0.976170957233237,0.128061763525868,0.124997281353182,-0.0179381971218936,-0.0510316733587539,0.309036219880073,-0.428651300540904
458,512,15.3317994336818,0.772916301723747,0.976159841329377,0.120096494107334,0.118202462011064,-0.0210796989742362,-0.0161828237840882,0.265379809119939,-0.458836456788155
459,513,15.3320378860503,0.773378763109404,0.976094080863722,0.108669832637353,0.110778802223838,-0.0248023257573614,0.00742564845832058,0.274754631325722,-0.49507240489587
460,514,15.3321580394471,0.773797002585618,0.975976794999522,0.0971330635042799,0.105066265453429,-0.0283486679909884,0.0522076988647228,0.374086437516077,-0.472299312897564
461,515,15.3321947672999,0.774236230417023,0.975813932682787,0.0857100132594306,0.101354786520649,-0.031805806904631,0.0916788541884528,0.364310674033297,-0.453461593600877
462,516,15.3321525178676,0.774732600477582,0.975610690472769,0.0752816955987682,0.0997059143363866,-0.0352863901882835,0.0754510526119597,0.326493311879433,-0.447108431589557
463,517,15.332118868829,0.77528851860206,0.975365918929725,0.06676486787278,0.0998099934741414,-0.0390435992785721,0.159164210775252,0.350092615309272,-0.465596130369189
464,518,15.3320848209746,0.775922440743055,0.975085047753408,0.0604480710827628,0.100797047267307,-0.0429133562842025,0.196531002711055,0.409515897104825,-0.472471502583028
465,519,15.3320423120753,0.776663009000618,0.974768634915127,0.0554550484679845,0.104556157587744,-0.0471891681385015,0.330404818493425,0.41815914464617,-0.51369917737883
466,520,15.3320230658144,0.777503825081827,0.974417923747844,0.0518538453590397,0.10878838053482,-0.0512059574127881,0.385475782417677,0.470642857330672,-0.494263880555254
467,521,15.3320420310425,0.778469464713048,0.974071796573188,0.0511583545496639,0.115667952918456,-0.0490887695467317,0.408257868441725,0.621916569367282,0.0667734395579337
468,522,15.3320540354113,0.779579615122099,0.973739360171101,0.0509243748807615,0.125733366728537,-0.0522382839916857,0.649121292325914,0.722763745829299,-0.506117298761294
469,523,15.3321045045657,0.780812487133576,0.973393514642035,0.0497466781207705,0.132679922323403,-0.0484829795580053,0.180113558559537,0.452832539390349,0.262814278934212
470,524,15.3321743160559,0.782161836336076,0.973070792437997,0.050665662634786,0.140955426639126,-0.0444603851202443,0.196743518935418,0.676336897871039,0.308075889701511
471,525,15.3322345372494,0.78360176721574,0.972759438585443,0.0477046986253267,0.146281219180345,-0.038988632717607,0.188282692246509,0.530469125130702,0.431930112121984
472,526,15.3322478196808,0.785101420582537,0.972471816778631,0.0425291702479401,0.147127496022353,-0.0332045449707387,0.380091926860866,0.378515286001869,0.488505594860122
473,527,15.3322084840449,0.786588994132681,0.972204052751345,0.0360768639350207,0.142973963199091,-0.029729707808971,0.349858380576135,0.214639444906921,0.277899614240241
474,528,15.3321015582117,0.787988500234638,0.971929397380084,0.0285603240201565,0.136091953488747,-0.0278002836007322,0.464816976433321,0.0303686168111521,0.192345895960643
475,529,15.3319603766858,0.789249054309062,0.971651485160843,0.0215214171899826,0.125745775567223,-0.0245449720414919,0.493384052847723,-0.035369479760539,0.347518202690515
476,530,15.3320252380433,0.790450692908525,0.971550155277815,0.0204210728945509,0.117106341156188,-0.0193966372145859,0.597136253617913,-0.54028239309387,0.33994831005627
477,531,15.3319478218249,0.791555950675882,0.971454729432903,0.0165915781333414,0.108572589107542,-0.0150363516765839,0.521459707367847,-0.619251261956102,0.350680880384362
478,532,15.3318863044031,0.792602182031081,0.971483117298926,0.0137446377006649,0.105063511295316,-0.00736270961191968,0.544718757003148,-0.231960840270806,0.562404501794599
479,533,15.3322517432276,0.793543714092965,0.971655902475175,0.0139232641565083,0.103761316883264,0.00560243462749937,0.477838156570713,0.0895797171386592,0.938914065574635
480,534,15.3327264485576,0.794728035211762,0.971951133743012,0.0188617806794942,0.103774771784985,0.0219636127869809,0.134431794177439,0.0338611462469072,1.3332022105239
481,535,15.3331244567733,0.795670755418418,0.972363373866634,0.0233511800552098,0.0994626498979919,0.0378025436568679,-0.200050360960062,0.0169041004792605,1.32624638982581
482,536,15.3333221010009,0.796598758449378,0.972847815085602,0.0231063598578145,0.0931874856401024,0.0493302277947293,-0.308110877718911,0.135707564352159,0.958898243341435
483,537,15.3333684184315,0.797474881157196,0.973360559655526,0.019325129961481,0.0903277521016657,0.0540286668318586,-0.0179987012982523,0.119871113805151,0.418991710312659
484,538,15.3333189399156,0.798323394627001,0.973884870582018,0.0151802385102448,0.0887815470780874,0.0539836010084518,0.371025956572976,0.0968743349823668,0.000574465796877142
485,539,15.3333427188156,0.799237090720578,0.974388263972221,0.0139666302184594,0.0914569715070841,0.052321494340794,0.8268250497251,-0.136234509178412,-0.167268884680075
486,540,15.3335047101279,0.800304426990687,0.974946218110786,0.0179091910176991,0.0988381413975368,0.0520908571630436,0.887159193551138,-0.175411143524893,-0.0200082207207019
487,541,15.3338323961983,0.801523048573799,0.975568374476501,0.0269524967951623,0.109664008966573,0.0543463600771192,0.806730037788525,-0.124882155920727,0.165321640476104
488,542,15.3342726056035,0.80286524383471,0.976241791409178,0.0356883276627338,0.122459183093591,0.0569340456221363,0.472116915328956,-0.0236560808288718,0.240073680631022
489,543,15.3345354108325,0.804143091122454,0.976979761558889,0.0397745408376216,0.130674487680974,0.0592071664305653,0.197875117897119,0.0147712564572364,0.180116217143036
490,544,15.3348197412034,0.805441146248685,0.977736556099505,0.0391609545852363,0.136174374692749,0.0596714728775794,0.0429366198789211,0.0882762104446822,0.0178161562689393
491,545,15.3350166283606,0.806775845237476,0.978540309893778,0.033613142016074,0.139576097542784,0.0597532126861834,-0.233331648979692,0.161605362081238,-0.0637584716130537
492,546,15.3351275095053,0.808120744172274,0.979404388341897,0.0264771217152344,0.140663873019308,0.0579508351332935,-0.413941063608357,0.0622671875448655,-0.272885336253469
493,547,15.3353316264978,0.80951355466559,0.980253414195096,0.0231852596638416,0.139783516024214,0.0550974832540589,-0.372462688389459,-0.0663421479110397,-0.410107115706828
494,548,15.3356313504261,0.810858715429061,0.981062292252393,0.0237512531056619,0.133188084410081,0.051841387764599,-0.3814915197848,-0.339441228383386,-0.465639781151663
495,549,15.3360792836992,0.812093288328507,0.98180860479291,0.0288993587599151,0.121560623645774,0.0485556356292067,-0.294798808066525,-0.547309875880478,-0.456503152298826
496,550,15.3366555341052,0.813153926697519,0.982460384392268,0.0376414207312679,0.107365321130468,0.0451635095883256,-0.119859607716059,-0.530359005869484,-0.428222506988736
497,551,15.3373027841569,0.814021188881957,0.983005860036341,0.0482339385198075,0.0909303483543181,0.0416128336551536,-0.0623829886767729,-0.577571877479377,-0.401497238114652
498,552,15.3381212987217,0.814783029689882,0.982528667722315,0.0592023087813576,0.0743299488279218,0.0358874686457246,-0.159621778354144,-0.607876238316993,-0.263862340003769
499,553,15.3391442144189,0.815465731993095,0.982175279766121,0.0722419953009082,0.0592327707010359,0.0313984358236134,-0.120266296046374,-0.722217876383888,-0.178469756040052
500,554,15.3407801774533,0.816466189863691,0.981839748537225,0.0918726918273542,0.055193020143826,0.0273286714818292,-0.0600074629585605,-0.682653775434904,-0.0942963035097815
501,555,15.3426075051114,0.81735111635275,0.981585704516708,0.105790302061934,0.0480497076319848,0.0212174236058466,-0.0483957741829038,-0.622779885585159,0.0685196994735792
502,556,15.3438484223192,0.817999234444224,0.98143764470634,0.109236197116137,0.0436517844496949,0.0175921717300666,-0.0938293994484501,-0.529832143867864,0.0910411848736352
503,557,15.3452604014742,0.818322601739824,0.981195931519874,0.113297784903537,0.0343138867507823,0.0143980998295454,-0.206850757831215,-0.566461937484707,0.133354754684979
504,558,15.3463943141664,0.818550233737935,0.980853992105613,0.112068939213177,0.0255394423006999,0.0107473475574277,-0.370304244153831,-0.607506750758218,0.167980375896985
505,559,15.3473957923238,0.818674972513275,0.980430880399356,0.107637312208323,0.0171465070686341,0.00641352542095679,-0.404560849440931,-0.590307083520884,0.149409826749427
506,560,15.3482133806193,0.818772360062508,0.979959372431507,0.0989013528465334,0.0100708438261583,0.000999635224481839,-0.313177672188634,-0.58979422944596,0.0224768484057383
507,561,15.348931936453,0.818891600473403,0.9794642623337,0.0912070749221371,0.00534988250726169,-0.00465503049354248,-0.313349259716475,-0.510593018007544,-0.0580313475757651
508,562,15.349548157006,0.819095522838512,0.978966325052926,0.0838498289811015,0.00349348952839275,-0.00968158517734224,-0.245466385044302,-0.519256213640434,-0.0838908163996149
509,563,15.3500806295176,0.819369069359249,0.978480972464754,0.0773570792674185,0.00243987988987929,-0.0140196788045719,-0.173820159954265,-0.452083739129695,-0.102716597663257
510,564,15.3505377839224,0.819691537869104,0.978019124264333,0.0701862317242304,0.00281497125245795,-0.017769750894828,-0.167241895075698,-0.3804279702964,-0.140911931801981
511,565,15.3509283086614,0.820024612750497,0.977593959935485,0.062332306489973,0.0034426424530097,-0.0206551859758301,-0.240434114147369,-0.363012070991035,-0.152670711120841
512,566,15.3512545662212,0.820344864844116,0.977219073161887,0.0550445389409045,0.00400769689870778,-0.0223006284618407,-0.317677990300699,-0.345760056505432,-0.120190763994632
513,567,15.3514811068973,0.820642898203421,0.976906127829793,0.0461199363249142,0.00499929719717714,-0.0232634434082549,-0.40654213248072,-0.25445657372879,-0.134236875836497
514,568,15.3516015700707,0.820887894595954,0.9766592215045,0.0375018573489506,0.00482710464699749,-0.0237668349093051,-0.4846869408519,-0.295062254853297,-0.155959274538007
515,569,15.351607678368,0.821040474107705,0.976482597241768,0.0286025926273052,0.00310801795352312,-0.0237256607577562,-0.494377015304603,-0.295643794921696,-0.176905598587518
516,570,15.3515140313189,0.821051282009569,0.97637695432538,0.0198326667003752,-0.00180372366038968,-0.0238274400338323,-0.475828862222285,-0.284680378420898,-0.254013506384724
517,571,15.3513279837296,0.820929482023884,0.976341450299169,0.0102899645018687,-0.00735068018765384,-0.0238066034131036,-0.464429512539284,-0.293410319257504,-0.308759139945965
518,572,15.3510587191962,0.820652582251091,0.976375390869313,0.00104700454188762,-0.0148424098605157,-0.0231876845665576,-0.415151009351555,-0.293908522513995,-0.321704382112354
519,573,15.3507093592114,0.820231893162955,0.976480512118609,-0.0100440169769627,-0.0242470821598204,-0.0220582695434782,-0.399874358124175,-0.32646325144445,-0.337855443702517
520,574,15.3502893470249,0.819667351086525,0.976656138318244,-0.0205385924687973,-0.0347918490419417,-0.0204471037303377,-0.40212635109382,-0.349287838421845,-0.339523554092878
521,575,15.3498204073204,0.818975026071701,0.976905406060222,-0.0292803465791825,-0.0467700046726213,-0.0175059737123514,-0.416305524997953,-0.361168650881574,-0.222284652062353
522,576,15.3493660374721,0.818121374925472,0.977043300962062,-0.0352728231971007,-0.0616303548573226,-0.00966012685363893,-0.257753892968822,-0.542767849008974,0.199190332049674
523,577,15.3491297282382,0.817213798835888,0.977330353677434,-0.0366796366230195,-0.0745210706761711,-0.00577966265977766,-0.310889040301023,-0.571237025917793,-0.242556469464394
524,578,15.3493138394897,0.816621732305318,0.977532405329719,-0.0308985570560293,-0.0768577883333242,0.00271040324358675,-0.3341899138964,-0.566114757008758,0.417583760652861
525,579,15.3499756525024,0.81646893524566,0.977629798675138,-0.0175499716556147,-0.0690315959340372,0.00842077411623878,-0.307614651370156,-0.331129935494286,0.341737732457349
526,580,15.3508893474742,0.816591012085828,0.977591297118732,-0.00243824212398264,-0.0563445973717224,0.0126288062632166,-0.317561891807243,-0.280062241706014,0.445393881942116
527,581,15.3517750607874,0.816788422519472,0.977443257168002,0.00883901817343604,-0.0430580593227864,0.0152733189744658,-0.322042776016778,-0.205681752511856,0.469886013523165
528,582,15.352107001354,0.816509092569679,0.976751478231323,0.00785324257047722,-0.0407261383127675,0.0102987918919311,-0.309408811627094,-0.194999222016313,0.434663153388711
529,583,15.3524666866874,0.81636819703044,0.976445665630999,0.00968308163760545,-0.0359699005972294,0.0100348819973935,-0.214880487346107,-0.0884075212908774,0.441807903324769
530,584,15.3522000809273,0.815456096063509,0.976090307080467,0.00489701719888039,-0.0401010595961522,0.00890584709797488,-0.126076513702076,0.077923472347371,0.413077460140001
531,585,15.3519934188672,0.814668464846253,0.975702043022521,3.81488652082311e-05,-0.0434282207677534,0.00713142394556216,-0.0705548968103427,0.110658664273449,0.377898161417388
532,586,15.3516749257866,0.813750346209493,0.975312077112553,-0.00714567011872599,-0.0473640127020262,0.0051481732559956,-0.0682634492589348,0.357739582560346,0.319687972319779
533,587,15.3512566113451,0.812724301889479,0.974936210190017,-0.0155040750850095,-0.0517736148542112,0.00356151257021556,-0.123808271015848,0.486787307539921,0.323809767287838
534,588,15.3508287317231,0.811764453288416,0.974589409199385,-0.0231497592321927,-0.0543488480910162,0.0030703363763045,-0.147117304173043,0.460257628295277,0.396374732283003
535,589,15.3503645827145,0.810864553342365,0.974291370508651,-0.0293304378990406,-0.0547370824348432,0.00481859277948313,-0.136126517736458,0.369520688257715,0.500044644867081
536,590,15.3498499379246,0.80988169098751,0.974046901038423,-0.0330579306623746,-0.0561217767008639,0.00831766509710404,-0.183506725041026,0.342800527138167,0.625396755975754
537,591,15.3492899319373,0.808826951744699,0.97385573678526,-0.0388851294478402,-0.059305128864515,0.0123239186021273,-0.211763529687522,0.500632027897085,0.660571177351793
538,592,15.3486858395498,0.80772542264306,0.973711861300142,-0.0461446596542353,-0.0635633756293243,0.0159112718639669,-0.227308371808503,0.657402807912291,0.618865427105743
539,593,15.3481007249601,0.80665551035547,0.973604950870273,-0.048239206862526,-0.0719874640513684,0.0200783874209446,-0.207432838945633,0.43382125065597,0.69875016362597
540,594,15.3475398347458,0.805620545558123,0.973529071015158,-0.0516576966411963,-0.0817884768347555,0.0243866440891387,-0.378457170021431,-0.162965737474258,0.715522745750515
541,595,15.3469460992897,0.804523896710717,0.973474363488238,-0.0608033893449888,-0.0931437233231713,0.0285010999026176,-0.28575716905115,-0.401576456310292,0.63621411571329
542,596,15.346237441337,0.80332822229412,0.973429841204094,-0.0716997049103215,-0.104248001186172,0.0323801020687022,0.243190682679083,-0.475483918939635,0.564918345556063
543,597,15.3454550936511,0.802007077202845,0.973373345378485,-0.0811335415360902,-0.115454047579369,0.0341196058191616,0.581189359276193,-0.348886579842512,0.391125646696433
544,598,15.3446161939241,0.800615090783097,0.973283616348107,-0.0849263849087157,-0.122703916151922,0.0332578686443444,0.505032751634116,-0.145216502371216,0.228654916184964
545,599,15.3437483522992,0.799222527377317,0.97315126397954,-0.0846159975808627,-0.125829057769791,0.0313565483481409,0.456016084409566,-0.130670727635392,0.178438055291464
546,600,15.3428724539798,0.797842508981373,0.972975524593135,-0.0817233448530392,-0.12711108987387,0.0287041185305599,0.264867515348837,-0.163355276345486,0.169421705881942
547,601,15.3419796280299,0.796488965639264,0.972759084375136,-0.0792044346919033,-0.126702073535616,0.0255514513596684,0.224068338691566,-0.102151674267001,0.134041877184394
548,602,15.3410590658456,0.795161200312506,0.97270745283599,-0.0788772644318403,-0.126181235121562,0.0234230148214854,0.229005674604379,-0.0718510700409393,0.0679867740164719
549,603,15.3400881283057,0.793867234096438,0.972671437391181,-0.0814096647641711,-0.125155333928292,0.0204027828835671,0.279635416366369,-0.0783806145096584,-0.0493604280814794
550,604,15.339067599202,0.792615506455279,0.972636630521759,-0.0863569903986914,-0.123802282007281,0.0164961480300864,0.381389212185143,-0.0549124862338409,-0.195196018659842
551,605,15.338001664733,0.791401862372282,0.972601261076481,-0.0917034541850118,-0.121995423259186,0.0131417386999049,0.530905559011704,0.0219766799248063,-0.207967598226858
552,606,15.3369480068426,0.79022905799629,0.972560015904785,-0.0934868134159916,-0.120479660050317,0.0112239457318501,0.481335750340539,0.0990599255945872,-0.0850429787684664
553,607,15.3359256425586,0.789073245243442,0.97252148009426,-0.0919461628738739,-0.119034550681858,0.0105424350959871,0.327687788241689,0.175376511475838,0.0313431910384243
554,608,15.3349249793915,0.787976109825573,0.972493702266858,-0.0912377415572886,-0.117632699872235,0.0100704866798759,0.332535613332916,0.158629959284725,0.0301776473926817
555,609,15.3339076998114,0.78689993140143,0.972472465072052,-0.0900967655011787,-0.115937613323276,0.0100960180325584,0.281335633293935,0.0948779937213156,0.0799470568529406
556,610,15.3329010871462,0.785843818875232,0.972452116618211,-0.08688129317191,-0.114124529337866,0.0109613429006072,0.19829940855004,0.0926905432178662,0.161566357543586
557,611,15.3318400964607,0.784780453105782,0.972436736521034,-0.0871058710294526,-0.113418402604878,0.0109585165976139,0.215327877025307,0.144599781230717,0.088635608889173
558,612,15.3307587632521,0.783726732295945,0.972410775138369,-0.0878571487054159,-0.112135462883301,0.00984429519329767,0.252312194951247,0.128580945072642,-0.0109099211052459
559,613,15.3296343745764,0.782623059512212,0.97236836552918,-0.0894461587396488,-0.111878969334171,0.00733158770556596,0.198741371072855,0.129415996174548,-0.147881112281915
560,614,15.328506812915,0.781466432137375,0.972567034404983,-0.0912582531806859,-0.112288336639319,0.00564937553123599,0.141039202955443,0.195323089876117,-0.189820762671097
561,615,15.327321299199,0.780234137369413,0.972781252886484,-0.0958718848811128,-0.113028891477156,0.00278639007933622,0.185465746695264,0.281241696593943,-0.331999247033588
562,616,15.326104817508,0.778996351843948,0.973014851411017,-0.0985087634554194,-0.113047417203232,-0.000101273743019715,0.118361804194331,0.284954541161616,-0.396746093501048
563,617,15.324875224564,0.777768127949364,0.973264065500529,-0.101789021184733,-0.109033952523427,-0.00425569405892963,0.115453477768516,0.289140987237873,-0.570612266143833
564,618,15.3236180457804,0.776611372110199,0.973527059815807,-0.104356410731518,-0.103193967211606,-0.00818528138787497,0.130218025930313,0.271406672211765,-0.637613955161928
565,619,15.3223459682371,0.775553431110724,0.97380668462144,-0.10668447596713,-0.0945719157942961,-0.0112559531928776,0.0661790121489874,0.32113794388088,-0.63690211394462
566,620,15.3210897587228,0.774618447820005,0.974106397378716,-0.106201601452446,-0.0854978474520545,-0.0127581678389781,0.108976212268843,0.382839259363068,-0.554601259899144
567,621,15.3198789502021,0.773822774082646,0.974418915626041,-0.104042364494207,-0.074934096404794,-0.0138735510385203,0.0675674657073615,0.39254424786305,-0.540094933347023
568,622,15.3187504660636,0.773220244261764,0.974776776510066,-0.101327433261542,-0.0624584795810149,-0.0139568297054673,0.0130479214074093,0.395881492263632,-0.527263005475423
569,623,15.3178924620882,0.772917833377286,0.975189048173209,-0.0931154718351079,-0.0474884516382611,-0.0135192729461544,0.0454787311361017,0.404094460133636,-0.540826148932253
570,624,15.3178031149864,0.773199137650629,0.975649613619199,-0.0731187594621364,-0.0249070770650297,-0.0117753968120164,0.0172699243768407,0.318437836937721,-0.471425696567848
571,625,15.3187096150544,0.774207069866648,0.976135552407078,-0.0402634109180523,0.00511978975814931,-0.00916223635057792,-0.0293324708610452,0.421134198659732,-0.383640659554581
572,626,15.3202483020365,0.775762423697379,0.976623439884192,-0.00236984943839813,0.0383011812941165,-0.00467283650210608,-0.151139906845442,0.458104793271871,-0.17092320368387
573,627,15.3219647488122,0.777537272039632,0.977120592497317,0.032901005478005,0.068601206840671,0.00116889134177062,-0.208286602845171,0.512050695496018,0.0319713686345355
574,628,15.3235815831754,0.77930295711093,0.977625961728027,0.0596500602389638,0.0936045359489849,0.00696311345247358,-0.256139026730103,0.525480216183178,0.100831293754094
575,629,15.3249320638148,0.780932605666965,0.978125209697244,0.075657164080653,0.111029885514448,0.0109815545064947,-0.221711227506898,0.464725653567075,-0.000829299197036984
576,630,15.3259768697889,0.782365188869875,0.978594829532572,0.0839560776732152,0.121204140806126,0.0128686576508495,-0.183492423679299,0.402193539409089,-0.145204320987151
577,631,15.3267335979268,0.783584975377023,0.979012985122541,0.0865866977256859,0.124879079503737,0.0129229883801474,-0.145837257273756,0.32897140257272,-0.25818502758628
578,632,15.3272310017867,0.784583972290116,0.979365777183451,0.0848245776337835,0.124705984269405,0.0109815761844734,-0.0411702883631605,0.294007701825213,-0.39553200125422
579,633,15.3275200062963,0.785383523819956,0.979645592363646,0.0806988100665562,0.121142547818413,0.00815926734902259,0.00156268267899439,0.236304329072642,-0.444579222723145
580,634,15.3276274438764,0.786032188689936,0.979848466338997,0.0736284294927977,0.117560576620034,0.00345726337350402,0.0370443800744482,0.219902964621766,-0.594413384043951
581,635,15.3276185419033,0.786578847099398,0.979972668349082,0.0668858312302687,0.112865887423339,-0.00148641469949679,0.055818807199841,0.220135363517536,-0.60933444072872
582,636,15.3274164070096,0.786858068432898,0.980235083555979,0.0571724329941455,0.102366601213312,-0.00385652735212669,-0.00307535358391278,0.147202209978203,-0.64294771745885
583,637,15.3284130325496,0.788192950963555,0.980312984663633,0.0623161501982113,0.106142574610456,-0.00805607989516895,0.0160448415180283,0.200789668143654,-0.652354760798837
584,638,15.3283691790115,0.788290480500485,0.98034462262609,0.0578428073758352,0.0983071796845816,-0.0119697590442672,0.0197187997809422,0.170729241189394,-0.631910794473597
585,639,15.3287867994942,0.788884896091456,0.980354837647553,0.0566661617679299,0.0964028718755096,-0.0156436078868415,0.0463562531240615,0.212264381264561,-0.637716481327298
586,640,15.32900203945,0.78926721115206,0.980358414487555,0.0538354080117562,0.0919403292518269,-0.0182107640225129,0.0985133221592657,0.235848984706693,-0.582616639922225
587,641,15.3292815239089,0.789734516557648,0.980369079084521,0.0529127082543222,0.0880694237268334,-0.0192078921101219,0.0473882190748742,0.282506102880226,-0.482834182876661
588,642,15.329500652024,0.790186709224953,0.980398565225536,0.051832109269707,0.0857843590432189,-0.0195469213383562,0.123087526813305,0.28232706814521,-0.481743085966053
589,643,15.3297223807026,0.790698569699059,0.980409685027872,0.0513833720777105,0.0846215676451992,-0.0204286361102718,0.193692683072653,0.324278270737625,-0.483844231957408
590,644,15.3299547902434,0.791312962673996,0.980360771995159,0.0509003035412887,0.0863085492039882,-0.0220428563122912,0.189074328252277,0.353870502878946,-0.495226864300222
591,645,15.3301492155635,0.792148899791665,0.980199120179004,0.050017250913318,0.091796007153845,-0.0251039093934461,0.236118711310631,0.403897077886091,-0.518904348438314
592,646,15.3302420177122,0.793287223963337,0.979930612595747,0.0467731043112852,0.101619648748921,-0.0285384717817342,0.21595359256248,0.37605083984028,-0.446483145941498
593,647,15.3302236249679,0.794705132218058,0.979631078586634,0.0430004141491594,0.116094458804445,-0.0295004754700912,0.390467827070625,0.434150517570013,-0.196682892365069
594,648,15.3301234044466,0.796291497627506,0.979177646946569,0.0382998470192685,0.13105698462496,-0.0384598842807534,0.522167977073249,0.268463277280119,-0.843249039241598
595,649,15.3300543884603,0.797966120309525,0.978603899436288,0.0338486900218037,0.144512948269553,-0.0373944453169182,0.110093013439311,0.343074314355596,0.312252158873978
596,650,15.3300171246152,0.799691955201174,0.978013117496602,0.0308596706885946,0.157322682006622,-0.039913827239099,0.355981269407972,0.458743043145123,-0.0427248061815611
597,651,15.3300034611164,0.801396483029483,0.977393998970507,0.0258325282938972,0.163371137125696,-0.038834849053214,0.261648403022018,0.351745171946846,0.347024122363994
598,652,15.3300228884978,0.80303670384872,0.976900158975967,0.0228321677073425,0.164859068002615,-0.0393173638539301,0.348097681549453,0.112317159207063,0.1135935918542
599,653,15.3300659447274,0.80458084712722,0.976453527779211,0.0205894028792884,0.164416727785457,-0.0381224805403567,0.37811066508886,0.180493615272684,0.227369501840643
600,654,15.3301180798014,0.806052557957435,0.97603870345344,0.0185237007296797,0.162993388206746,-0.0361267843340442,0.389655420595279,0.0258127338848258,0.289991237204356
601,655,15.3301217532545,0.8074356512895,0.97566735507432,0.0134975591951922,0.158682351760095,-0.0317930442297149,0.316866266436313,-0.0511630305850898,0.517235910394515
602,656,15.3299839345117,0.808745281468087,0.975359068239357,0.00432135574370241,0.150602246951863,-0.0253827279895692,0.251444415801869,-0.317007470092692,0.701113777590804
603,657,15.3296879792626,0.810004021042899,0.975124898322028,-0.00931898788565455,0.142330116806709,-0.0169175283612043,0.352647328927383,-0.363270992686415,0.895766154221868
604,658,15.3292067337388,0.811211737179433,0.974997115716648,-0.0224613986811109,0.133605776466072,-0.00320446571875374,0.320498831504053,-0.255129100239405,1.41603367822068
605,659,15.3286428693841,0.812359169568844,0.975014513626818,-0.0317245095013557,0.122797336178724,0.0130496651754691,-0.122189419233531,-0.102016483686109,1.63772322248925
606,660,15.328384676676,0.813515802519971,0.975563452104697,-0.0323461010663753,0.115002763186223,0.0328536802492043,-0.381217416096091,0.149040264576192,1.38026890678639
607,661,15.3271784867684,0.814380978702177,0.975925735816318,-0.0452948585448772,0.108146348862216,0.0436213893297076,-0.371019928790943,0.256302836632782,0.962009382035535
608,662,15.3270849683718,0.815552509483672,0.976364938438488,-0.0440090529854998,0.109548843869046,0.0483727213674659,-0.0142071309434437,0.276533480404686,0.476686814065602
609,663,15.3265984044788,0.816573791405514,0.976845007619166,-0.042633837049391,0.111494033408222,0.0491524421314163,0.605299847698819,0.0817351445638615,0.125943165735383
610,664,15.3265387573148,0.817673655884556,0.97742947278875,-0.0319342396397511,0.114608956612562,0.0498038156644727,0.926263399093758,0.051481964359635,0.0285758943885558
611,665,15.3266413106399,0.818824145577195,0.978089356154535,-0.0166233856922175,0.120324659072324,0.0509755783335877,1.07935283581364,0.148395485451274,0.0595733508295526
612,666,15.3269992015496,0.820113333509774,0.97876802400913,-0.000739856298660749,0.12818665072001,0.0523180086568087,0.674954634752134,0.0744037312392901,0.0815597310377509
613,667,15.3273996925598,0.821461201111682,0.979502494430876,0.012197873882744,0.133993318484111,0.0538445193402983,0.222116062758086,-0.0463796226016061,0.051809264467478
614,668,15.3277738887073,0.822861655195997,0.980255421107407,0.0220858919120624,0.138308444178337,0.0534068021386063,0.0221898835053163,-0.017808071638474,-0.128482383351431
615,669,15.3280787025107,0.824298387088276,0.981055568950727,0.0276657775560058,0.142981326097762,0.0510464455165907,-0.0220568521787833,0.126019707916713,-0.366501937958641
616,670,15.3283466599777,0.825718725547322,0.981900324774507,0.0294279215216991,0.144206602137978,0.0471362610137665,-0.0924806811318347,0.130447770224913,-0.5666640948574
617,671,15.3286587334333,0.827100733918998,0.98269828546696,0.0289147824729761,0.141828014424212,0.041633969318738,-0.0424451201746128,0.0196004194360161,-0.737716899616326
618,672,15.3290556305901,0.828396297924338,0.983422664962292,0.0309361884845657,0.133703764011362,0.0369997890204815,-0.0270375286670706,-0.0921248474543721,-0.671572695113824
619,673,15.3295723680537,0.829559354450346,0.984047101979877,0.0364054640473453,0.120388438532652,0.034105529832959,-0.0107183279525311,-0.340312111440764,-0.464983002903405
620,674,15.330199784557,0.830541817904557,0.984553273788224,0.0432473107614373,0.103226563258322,0.0329151070240402,-0.0704878311003599,-0.439421895986695,-0.226315598926137
621,675,15.3309189839391,0.831359137958573,0.983916211907906,0.0527641412598202,0.0849462897395763,0.0316823674944908,-0.175780943607652,-0.526170244001578,0.169893844314094
622,676,15.3318158947704,0.832076280533996,0.983482385470045,0.0641054248628931,0.0671388442366132,0.0327056260109979,-0.266545809549684,-0.680930709164289,0.370600645468538
623,677,15.3330058150716,0.832876443605057,0.983113589348377,0.0780822624480654,0.0535688661067763,0.0353537556939731,-0.291617190381381,-0.705793753852138,0.589167034597007
624,678,15.3345585366487,0.833861214324814,0.982830020420187,0.0940420949571376,0.048944045903213,0.0389078920597873,-0.31509189066847,-0.674319532269572,0.74575114775661
625,679,15.3363687687842,0.835019440132634,0.982288613072704,0.108058792864937,0.0511115876478799,0.0387516923545813,-0.236015192257992,-0.590569393091712,0.610386983277638
626,680,15.3382289762543,0.836214448475589,0.981727674031437,0.120454151563307,0.0545691754792267,0.0377192431086802,-0.293830404835449,-0.624024122588966,0.573754446309213
627,681,15.3399683578609,0.837399627159225,0.981156712124142,0.126278130613421,0.0584869201212967,0.0347603866786378,-0.334349410348562,-0.748599516630847,0.450249111183738
628,682,15.3414623518995,0.838488460694383,0.980580910958629,0.126529038612033,0.061500181943111,0.0293675646817505,-0.374418546020703,-0.784044219998269,0.230171545762723
629,683,15.3426786611707,0.83945811764177,0.980002159718747,0.121821601936203,0.062828043192161,0.0222431684204009,-0.359156976632885,-0.733488839438362,0.0153883878993033
630,684,15.3436162244938,0.840299834490396,0.979425366408069,0.114871186909323,0.0619276089882289,0.0138982562181243,-0.349165206283865,-0.6833952674064,-0.175975190719476
631,685,15.3443018860689,0.841016898142901,0.978856024452732,0.105661241149931,0.0604626876620068,0.00496061832819176,-0.36565969679,-0.620713674199568,-0.311019463149538
632,686,15.3447920051157,0.841620611871761,0.978304732265777,0.0962149106563831,0.0569439288875868,-0.00355558965444848,-0.323328663118563,-0.580405681042693,-0.371478607781831
633,687,15.3451491100266,0.842126626759535,0.977781736148764,0.0876070660023967,0.0515111311277229,-0.0113529048120063,-0.31697507102935,-0.545202349977454,-0.415271031860097
634,688,15.3454134871632,0.842554975059351,0.977294057495361,0.0785499877193063,0.0448563803446219,-0.0181332597386417,-0.273530931777537,-0.421796943180133,-0.434799742932362
635,689,15.3456262924398,0.8429088370088,0.976847471466432,0.0703943280591841,0.0379168118136632,-0.0236920571800102,-0.303402018721397,-0.458093398619296,-0.412033562680167
636,690,15.3458013374911,0.843196042197889,0.976447764720502,0.0617132580635973,0.0302686096228259,-0.0278847902003176,-0.354175202463334,-0.398779398432209,-0.374891543376106
637,691,15.3459559774628,0.843417471732209,0.976097929839031,0.0541277631679015,0.0224243969270541,-0.0304561734457094,-0.36826997412733,-0.398126903244176,-0.293222781534628
638,692,15.3460956689892,0.843570539174341,0.975797363963263,0.0461082980497559,0.0144900921819136,-0.032944962242214,-0.373351556058887,-0.448557358382414,-0.326523301149925
639,693,15.3462176580203,0.843626682125338,0.975541909068838,0.0388216910348309,0.00575440023615498,-0.0344443979558397,-0.329464965164096,-0.477556980876566,-0.298988277115046
640,694,15.3463196459597,0.843554701238861,0.975326043286284,0.0324376410249594,-0.00436345113086105,-0.0358196825298378,-0.236442549925329,-0.533416231230368,-0.328440178879898
641,695,15.3463973402971,0.843346740608387,0.975143861820238,0.0259392555467291,-0.0151752292930951,-0.036654405752386,-0.178481175091427,-0.51232964923928,-0.322617562682874
642,696,15.3463886992854,0.843025188003345,0.974990132362374,0.0189135038127974,-0.0252436698450051,-0.0373614462468442,-0.226148944718139,-0.487537975829996,-0.329956731191146
643,697,15.3463735365691,0.842578027290096,0.974851284580106,0.0124865668386922,-0.0359773325921368,-0.037726045739377,-0.181537901111499,-0.462877217941568,-0.320230953575609
644,698,15.3463206579007,0.842010227297034,0.974725421115784,0.00663349400084599,-0.0466188850706186,-0.0372880154018934,-0.175921454629143,-0.444941224952679,-0.257930909736644
645,699,15.3462152168417,0.841317790892635,0.974607794550462,-0.000177108139822421,-0.0575623928757761,-0.0367814134899402,-0.204760853132771,-0.375747078442935,-0.247784452264849
646,700,15.3460546790227,0.840518976213722,0.974489810484938,-0.00699486903452408,-0.067409107733307,-0.0364149492538828,-0.226891885435372,-0.290575241775531,-0.24685995155823
647,701,15.3458442776707,0.839617669993819,0.974364047987217,-0.0129967822406599,-0.0773589362887548,-0.0359876567119577,-0.286747630022754,-0.264749853138657,-0.216910631153967
648,702,15.3455789824196,0.838654630740414,0.974229905912627,-0.0185196651423046,-0.0856222506069451,-0.0356606992490294,-0.345646438147343,-0.302602915455427,-0.204017711597513
649,703,15.345252725127,0.837616267372038,0.974123375535546,-0.0225799705008782,-0.0943746901501878,-0.0295718773030126,-0.387003029439302,-0.318287956739424,0.345072863428135
650,704,15.3448277428207,0.836530489878563,0.974034318818727,-0.0276028300805322,-0.101602900198072,-0.0311904257519873,-0.289750127708104,-0.42937958693312,-0.391054282364721
651,705,15.3443133864113,0.835403234678456,0.973938277941235,-0.0332428616565269,-0.107546558717529,-0.0246729264818913,-0.182968118122796,-0.497135914517244,0.487980417319093
652,706,15.3436646427062,0.834225764002799,0.97387306976349,-0.041031530618623,-0.11101175167326,-0.0188593988681359,-0.109538434744712,-0.36030944748274,0.37627576480384
653,707,15.343151095957,0.83320733968103,0.973406871911976,-0.0399546752243004,-0.106529454157949,-0.0179662586203443,-0.18264887987382,-0.216583746226032,0.606016631238198
654,708,15.3422571464192,0.831762454634819,0.973380580416958,-0.0461932010218113,-0.106550965710973,-0.0117210758298901,-0.228524665948951,-0.072648037094669,0.649358301964734
655,709,15.3416321083796,0.830551076177215,0.973180966051551,-0.0491000293254789,-0.104051509586208,-0.00754275366326132,-0.213476429347285,0.0916783036127145,0.646754652524659
656,710,15.3410106216756,0.829262122610898,0.972944764585851,-0.0521014734965259,-0.101240129372466,-0.0051070665998541,-0.116592106654295,0.351788461593619,0.556089773020535
657,711,15.3404680814929,0.827912541814428,0.972660341217125,-0.0543945551422639,-0.0992039526347634,-0.00461692967043406,-0.0822621514633182,0.55580948053284,0.425423043332944
658,712,15.3399890845977,0.826555178877382,0.972331088012978,-0.0526132458641755,-0.0989871377047794,-0.0039457665693756,-0.107125195466453,0.625762512700762,0.475718129149635
659,713,15.3395627032144,0.825203915909122,0.971982243438154,-0.0499071317259669,-0.099208406374609,-0.00255965900264616,-0.177504532518034,0.588632588379792,0.566112854299454
660,714,15.3391165972621,0.823889300924886,0.971633649072926,-0.0507968953846615,-0.098817246155065,-0.00146984752035114,-0.114353108687085,0.586728639662492,0.52131470830459
661,715,15.3385757253864,0.822578232589256,0.971370325841304,-0.0543152986096334,-0.0998662542994284,0.000340124441422207,0.0164860594066395,0.49900974698711,0.528222076992263
662,716,15.3380021721006,0.821219297549425,0.97113212783831,-0.0527447456986436,-0.103333268466872,0.00463375165928029,0.0117763507230834,0.331368171967545,0.760942530068171
663,717,15.3374268829299,0.819768103565436,0.97089026432723,-0.052595894697087,-0.106372758279802,0.00975690191937341,-0.0571073271305615,0.292025542453866,0.852960161961799
664,718,15.3369560409998,0.817791928989009,0.970078224988251,-0.0556393352252138,-0.109426261376726,0.015352704567234,-0.452870724537861,-0.0444048443976205,0.853137707006634
665,719,15.336453583199,0.816338419784931,0.969939738689124,-0.0558290815520622,-0.110014491043872,0.0165989425287553,-0.211582271188685,0.544613804019375,0.729738238904311
666,720,15.3359633711523,0.815003473634569,0.969868253076322,-0.0637874100518428,-0.115775176783949,0.00896455883147961,0.323814988140854,-0.145437829890226,0.150872941958091
667,721,15.3354000112897,0.813732211038872,0.969789378863004,-0.0673881481415973,-0.118849278309478,0.000144025365141027,0.693277059810385,-0.0698011429997592,-0.0668311796167548
668,722,15.3348709715505,0.812493010495136,0.969701216586145,-0.0639362473075018,-0.121594655135827,-0.00619704862405357,0.83396215041706,-0.0681018061859034,-0.148279465170295
669,723,15.3343956985301,0.811271956039852,0.969629211993587,-0.0513942228342264,-0.121508440749796,-0.0088714895755066,0.749848680027131,-0.0503046338764857,-0.0341330359656442
670,724,15.333946419,0.81006411619196,0.969599436536233,-0.0425962260238093,-0.120037339128597,-0.00856279424450527,0.799079912052944,-0.0511019688821006,0.0547309807082852
671,725,15.333496023325,0.808852097555096,0.969869897460671,-0.0386656037809539,-0.119418334236243,-0.00282058143898415,0.718799894475502,-0.0979697492840811,0.201483326221027
672,726,15.3330782549752,0.807560268561639,0.970277053962777,-0.0347786444469166,-0.121963290544582,0.0071074934711347,0.454615760642081,-0.0862426793236817,0.499080546046329
673,727,15.3326096199437,0.806230228420609,0.970791923844103,-0.0357813227427412,-0.125347050796006,0.01890909368024,0.297529730636587,-0.00751165137246036,0.696496436257905
674,728,15.3320219110384,0.804799605960634,0.971363028555522,-0.0424670815785884,-0.130827913443333,0.0302669457229365,0.262942542897947,0.234104607730381,0.740431903619418
675,729,15.3312797984885,0.803378344826682,0.971959343902865,-0.0526851560276112,-0.133421236894492,0.0385036371369068,0.379587472363814,0.317086118019735,0.538642629337772
676,730,15.3304423622529,0.801966696938664,0.972529596556369,-0.0600181550432427,-0.134822018711107,0.0425855569951345,0.445639527972297,0.392481577585452,0.34796780015205
677,731,15.3293610195903,0.800758509172068,0.973188692757274,-0.0631904668601393,-0.132917688023485,0.0431754577128566,0.411145154796511,0.536137847773037,0.0915585031359071
678,732,15.3282958171089,0.799184103461399,0.973701484971837,-0.0675591412818362,-0.134748808525915,0.0446184648278843,0.252025536528633,0.083664672971789,0.130937234297062
679,733,15.3273910711828,0.797688704255127,0.974200336612446,-0.0702907998569238,-0.130594066575477,0.0433603380543766,0.174420149806333,0.46810190321651,-0.116480032186403
680,734,15.3263795343266,0.79620904643852,0.97466584835161,-0.0741080887757744,-0.126768215839959,0.0404651101985332,0.103961521447723,0.432606801862689,-0.268482777931424
681,735,15.325271481577,0.794796724030004,0.974992404580469,-0.07994396381359,-0.122228831622148,0.0358437277034174,0.0965922350454412,0.334874546451058,-0.391318189634324
682,736,15.3241084172323,0.793529397825895,0.975291967233451,-0.0842545708130793,-0.116949434753826,0.0300830308876101,-0.0297509661965976,0.158955741727741,-0.500652154927991
683,737,15.3229456959346,0.792346566314722,0.975573822225584,-0.0869216364038326,-0.110248540169991,0.022360663567811,0.191292998236337,0.185089821385959,-0.719818109238263
684,738,15.3219719317353,0.791425967432313,0.975876034871725,-0.08611477057049,-0.100323616415409,0.0171344061794187,0.0815932048275908,0.196525751870344,-0.622934141475796
685,739,15.3213512235005,0.790876822933488,0.97622881922756,-0.0780379167464027,-0.0839336076446806,0.0137395583070208,-0.112003903807667,0.154375238678968,-0.600329129733136
686,740,15.3217081916592,0.790986509074241,0.976634984240639,-0.0531064621718465,-0.0582601658175782,0.010418206226586,-0.039441168342999,0.201382134039045,-0.686664700565242
687,741,15.3233347410322,0.791895242021766,0.977096584464823,-0.0105771793725431,-0.022822168739233,0.00967852626952191,-0.0913793114774206,0.396648607309781,-0.559234997207961
688,742,15.3257279278293,0.79338131689314,0.977576653078769,0.0368135936305336,0.0146560667214852,0.0100722489728667,-0.177947793723302,0.345371599143878,-0.494932520082945
