,Frame,CoM pos x,CoM pos y,CoM pos z,CoM vel x,CoM vel y,CoM vel z,CoM acc x,CoM acc y,CoM acc z
0,0,-4.44072953682703,-0.0103474504389391,0.920078482928815,0.013022817306361,0.00816202068449486,0.00160202565508796,0.387750937252276,-0.10977903895242,0.0585902474475312
1,1,-4.4403676618476,-0.00959272358600192,0.920214641037035,0.0273886221922384,0.0136776185561817,0.000676847595636764,-0.252692478835714,0.702112685591157,-0.0702305876947781
2,2,-4.43999047069767,-0.00882876181381534,0.920362043558214,0.0375026637844617,0.0176673537725971,0.000155111616644938,-0.0106205495619664,0.371242974772868,0.276218140332204
3,3,-4.43962005393567,-0.00806674073170149,0.920516001986433,0.0461650663883017,0.0215766266982981,-6.94977458858667e-05,0.283429853244774,0.405907454728773,0.0831183158994288
4,4,-4.43927855070928,-0.00731756599203506,0.920672619396377,0.0538492503256047,0.027454317524536,-0.000859161078401521,0.385179146327172,0.278431741879901,0.021440591664902
5,5,-4.43898819825721,-0.00659187931026691,0.92082884482415,0.0587421937553942,0.0320279625995092,-0.00216979353798743,0.369387494589991,0.251976125195506,-0.143967954781248
6,6,-4.43878645544222,-0.0058770465990631,0.920961777178495,0.0589475239424778,0.0335431057980605,-0.00486324303899444,0.340573976679765,0.207063979728327,-0.190122169145783
7,7,-4.43865883547814,-0.00516425155899835,0.921076424372696,0.0561129614520827,0.0351873936911244,-0.00891617812012582,0.089089046110426,0.0821363012725024,-0.326845208727317
8,8,-4.43855006727039,-0.0044713442848573,0.921210699598696,0.0504671235603005,0.0327743533022931,-0.0130359252847805,-0.0348792665314969,0.122863020842909,-0.346437749869919
9,9,-4.43840516395975,-0.0038185566954671,0.921400206667024,0.0421897394504902,0.0280581547263509,-0.0162530115740296,0.194897483212991,0.0955830209768282,-0.270180544861457
10,10,-4.4381692115855,-0.00322832139824782,0.921678279474282,0.034585952919815,0.0242247020042442,-0.0168293231891887,0.301059129852275,-0.0126836327535292,-0.102755743087803
11,11,-4.43780771080532,-0.0026965965916325,0.922069909197644,0.0302630194641087,0.0205882495357796,-0.0132301096016866,0.259724053608136,-0.0348760218393785,0.228158658755231
12,12,-4.43735838378894,-0.0022125197271798,0.922550513149113,0.0295113416608328,0.0169743511874434,-0.00618622205040868,0.17777340605231,-0.222544911799743,0.328432037890446
13,13,-4.43687406661764,-0.00178841810899555,0.923077610483431,0.0310060408935956,0.0130960172684665,0.00200851285659019,0.0245876057935443,-0.387376030687402,0.355175968505702
14,14,-4.43640685901141,-0.00143528250942991,0.923608829065139,0.033163604551243,0.00878802704310424,0.00947923457068147,0.0164438492100355,-0.628535006078264,0.410009542485711
15,15,-4.4360081656606,-0.00116298868113927,0.924101932420318,0.0340156892030339,0.00375850146456168,0.0149459248493763,-0.0197519487752363,-0.678676487446083,0.354974280053623
16,16,-4.43567704819785,-0.000991162073920892,0.92456996886726,0.0330007032861267,-0.00343690941198135,0.018796424714682,-0.0491862743668018,-0.573220708631416,0.186040209794686
17,17,-4.43537837609309,-0.000913744468132495,0.925039820717505,0.0303611085955207,-0.0115288134138233,0.0220839422843695,-0.0294142432259695,-0.55282941629844,-0.00526812320282716
18,18,-4.43511198839973,-0.000900391877573551,0.925489864130276,0.0267789926259127,-0.0194952037367932,0.0243633998192084,0.035152135343786,-0.616896594005471,-0.141255494570807
19,19,-4.43487793611345,-0.00091959070638116,0.925898036330971,0.0234548931243001,-0.0270755314339102,0.0253300287492096,0.0567429361908681,-0.588007923998463,-0.29011029065496
20,20,-4.43467641439917,-0.00093884242837443,0.926241866198436,0.0207626867911403,-0.0346379438335738,0.0245240866038248,0.139136030730632,-0.536094356052233,-0.455729809661373
21,21,-4.43452471986216,-0.000939670394295832,0.92652421403281,0.0191784322388632,-0.0402891664895262,0.0218199168709628,0.121851024766021,-0.469923833723304,-0.553525394155407
22,22,-4.43442227547842,-0.000941574603993219,0.926758644578691,0.0187424881118138,-0.0435314014038302,0.0174136195681402,0.0521029707834207,-0.446629072797665,-0.61861067907763
23,23,-4.43434245596243,-0.000969087502605577,0.926938275807079,0.0186215813611549,-0.0457245708977974,0.011507053406415,0.0514439151384966,-0.494972445121409,-0.733933635899206
24,24,-4.43425869433457,-0.00104756242623687,0.927055943777349,0.0179596242506155,-0.0472311125548693,0.00477539493093221,0.037985697541296,-0.506717435613174,-0.77078463597703
25,25,-4.43414451477984,-0.00120297994216599,0.927104352907455,0.0164445932663665,-0.0486913199236375,-0.00188377878030912,0.116683840711273,-0.552209870949949,-0.789182043185678
26,26,-4.43399819804723,-0.00142544078513831,0.927083805784428,0.0145542899324655,-0.0491933199219139,-0.00845259651171723,0.169176296635349,-0.647479233541064,-0.774867714378478
27,27,-4.43383718489409,-0.00169785516107754,0.92699823337909,0.0130961584912407,-0.0482657378697201,-0.0152786953696084,0.130221325798385,-0.706683481363959,-0.779426274236849
28,28,-4.43366384347918,-0.00203574849489966,0.926845948067271,0.0123460171390018,-0.0477360858388607,-0.0221404849707768,0.0698811326219384,-0.695856456913447,-0.75959047475855
29,29,-4.43348060839003,-0.00245461580829016,0.926625540388451,0.0115174531128621,-0.0490442989784528,-0.0293372787913878,0.0553203541102616,-0.662193597786551,-0.813088455457752
30,30,-4.43328997291976,-0.0029697494068051,0.926336026417602,0.0102891144148352,-0.0523452467044259,-0.0365963854857003,0.140704943238471,-0.691461554807179,-0.813618127405551
31,31,-4.43309749343183,-0.00357091494113408,0.92598164990883,0.00954852690586102,-0.0558916391254837,-0.0438503639563295,0.235795859054195,-0.75332110311445,-0.774751532315567
32,32,-4.43290173125639,-0.00424700377809641,0.925565033557131,0.00974691836678393,-0.0599496812929717,-0.0510675790716291,0.227713018807186,-0.760766645096526,-0.782323073611863
33,33,-4.43269478717112,-0.00501194395681849,0.925083272469935,0.0107550569956875,-0.0645172456140475,-0.0577821521884493,0.288736902656749,-0.732447883496234,-0.757609471712978
34,34,-4.4324688798826,-0.00588022290257631,0.92453342171517,0.0120215168875625,-0.0705100877728436,-0.063661269052081,0.271960668455096,-0.64918642856269,-0.760289015817546
35,35,-4.43221641473725,-0.00686715388137028,0.923912322640223,0.0126123087544359,-0.0774138296196673,-0.0687938170386648,0.296117709531808,-0.502358031650063,-0.831602266672918
36,36,-4.43192909397328,-0.00798632067838711,0.923186988889534,0.0113328198002162,-0.0839704231591479,-0.0745405908602502,0.266351868731929,-0.483194630907577,-0.759623736851474
37,37,-4.43161310336279,-0.00922798781146805,0.922364644200432,0.008986749388995,-0.09093142625033,-0.0808349946962093,0.312480152649386,-0.422281854664203,-0.734145619798912
38,38,-4.43128244232985,-0.0105730767591609,0.921500474778848,0.00606806562566773,-0.0970801161815219,-0.0860511083981895,0.401124252894065,-0.468880924149125,-0.648591386332331
39,39,-4.43095053004023,-0.0120021184930651,0.92064689699677,0.00219205052657289,-0.101720063814164,-0.0886005219336456,0.341499937655876,-0.329989511286511,-0.115560763191853
40,40,-4.43063019827435,-0.0134951348035199,0.919853436666605,-0.00349153466981806,-0.104548249379294,-0.0807044659968292,-0.185572732329998,-0.279047636373547,0.633006905940033
41,41,-4.4303056211065,-0.015129411955719,0.919082217667228,-0.00923739213701089,-0.097493492157368,-0.0698745922911085,0.0887991241327483,-0.105410397654272,-0.256006530820241
42,42,-4.42996842622817,-0.0169177116668829,0.918300279865737,-0.00547670612199657,-0.0912253572873715,-0.0562625783200513,0.410004536591023,-0.534791442495525,2.41778646777452
43,43,-4.42964200200784,-0.0187435249609356,0.917561724552514,0.00928964226404342,-0.090743002054303,-0.0383225793392405,0.511880334093676,-0.194441358405407,1.44494038635955
44,44,-4.42934931012447,-0.0204911800150001,0.91691930796486,0.0208610543090027,-0.0924395264544143,-0.0229921648422705,0.430888948675269,0.264702523583534,2.08668846360411
45,45,-4.42911292448559,-0.0220457831527734,0.916424578832021,0.0258115118518482,-0.0959106146073491,-0.00959446300737216,-0.318920068487149,-0.149274236579561,1.22603824030133
46,46,-4.42894453233283,-0.0233704191025746,0.916093088501454,0.0302520027576046,-0.092733245849344,-0.000737101848404118,-0.971900372128186,-0.65387640332886,0.917813711110829
47,47,-4.42882850369217,-0.024543408716382,0.915888830918533,0.0366363009962009,-0.0869192030063737,0.00660655347735285,-1.13722066280192,-0.130676749461802,0.780910453835936
48,48,-4.4287462370463,-0.0256225436500839,0.915785302308572,0.0409739051845585,-0.0840265811982575,0.0113704787714576,-1.06214984768213,-0.025142519042845,0.784802856266708
49,49,-4.42867928306477,-0.0266649023910237,0.915755835506125,0.0426315012339999,-0.0855746350549181,0.0151154487124914,-1.09832323906656,0.0709099030535733,0.579404133540851
50,50,-4.42860942237569,-0.0277272153790895,0.915773748392163,0.0437606343425789,-0.085551793378274,0.0191313560477052,-0.998523840950225,0.107802636573177,0.778469794115542
51,51,-4.42850548528794,-0.0287703170052837,0.915855839087323,0.041027976093941,-0.0900114449320514,0.0223323762077374,-0.713501912277649,0.195583578330492,0.76977074747783
52,52,-4.42837991171906,-0.0297575955924819,0.916019806336354,0.0326761235715625,-0.102456548787695,0.0239577210290207,-0.957854114043504,0.408683767636998,0.370944656892896
53,53,-4.42827997047634,-0.0307494009609793,0.916241129588072,0.0223227107925876,-0.117248280990006,0.0248737246026153,-1.09042886211107,0.614183500524119,0.296869707127479
54,54,-4.42825268674139,-0.0318054167770253,0.916496021001917,0.0124783701768236,-0.127998862443098,0.0255563503343023,-1.25034107713133,0.323805047372089,0.211344351588118
55,55,-4.42834479122349,-0.0329842513486912,0.91676131151758,0.00514680280197735,-0.134775926515604,0.0258995107368352,-1.17854752421115,0.143566459982312,-0.0644931902625361
56,56,-4.42862938767721,-0.0343643302047864,0.917048044933326,0.000762167702092714,-0.138883743577066,0.024527852564731,-0.747539765799185,0.00929772652016138,-0.0820253163240967
57,57,-4.4290758761592,-0.0359064392409857,0.917376573642931,-0.00267688800060858,-0.142405677781347,0.0225016329987452,-0.471954521843633,-0.0318893878650321,-0.149879923592247
58,58,-4.42957513575715,-0.0374916993668783,0.917736988301093,-0.00606649464444262,-0.145809637588477,0.0205183911865852,-0.251708030268957,-0.0319702917625375,-0.0611939849132184
59,59,-4.43001779296768,-0.0390015707836071,0.918117447586484,-0.00807410198208944,-0.146722540134665,0.0196744072080335,-0.083249263444012,0.0506335308790024,0.105434654316304
60,60,-4.43029411510266,-0.0403179678551781,0.91850390708992,-0.0100601235802451,-0.146536204040428,0.0214159824371346,0.120185186748365,0.337157574378193,0.247325746811024
61,61,-4.43037058857793,-0.041365593424419,0.918881816808659,-0.00936081168893532,-0.141210324562925,0.0261812139102968,0.187886622943007,0.502004939886305,0.342983994391458
62,62,-4.4303211628028,-0.0422240026123934,0.919262708261379,-0.00558576986424079,-0.127368844056127,0.0334300102664663,0.296539083362887,0.359323122593978,0.533183043412287
63,63,-4.430196634677,-0.0430065520974959,0.919668062515908,-0.000192946934048903,-0.109390324287725,0.0422792299097371,0.378762085746708,0.319648764944067,0.598920392539509
64,64,-4.43004710881189,-0.0438251700512392,0.920116712784424,0.00366294647261635,-0.0931598006669774,0.0502576041477033,0.589685640593387,0.598771943784952,0.696620660886219
65,65,-4.42992192887458,-0.0447904810752247,0.920625009616376,0.00562932131693595,-0.0781990646015074,0.0574562413579757,0.529814170880468,0.628127892328815,0.600763148594843
66,66,-4.42980715166916,-0.0459689577204376,0.92120755014629,0.00581873422257593,-0.0668230916466273,0.0635517661399156,0.487205935074815,0.895620509411386,0.338122429940748
67,67,-4.42966920725447,-0.0472841233140944,0.921849482962439,0.00515428315894564,-0.0547802951851538,0.0685946424199087,0.440801001085335,0.77302575402379,0.163439579872022
68,68,-4.42952749182106,-0.0486322356300607,0.922521757761991,0.00416475640320263,-0.0443711938096479,0.0728429781851841,0.386612455966913,1.00307032807788,0.284681161126767
69,69,-4.42940124656977,-0.0499105122346555,0.923195659646121,0.00438840274912228,-0.036361579046971,0.0764473763194269,0.153525132591268,0.884828057465483,0.204081348495698
70,70,-4.42930960872727,-0.0510169676409806,0.923842678251808,0.00640914152278866,-0.0312173451128667,0.078900576041145,0.0108605764676203,0.771608692620436,0.067522497028231
71,71,-4.42927390546383,-0.0519382016039311,0.92447933937652,0.00837472436098315,-0.0304682904586683,0.0790848026997191,-0.147563611631868,0.742106812590359,-0.0894611348857795
72,72,-4.42928078993603,-0.0527421035441921,0.925122842038583,0.00969172948891165,-0.0315303582191303,0.0773841079350818,-0.112248718046094,0.567019489660393,-0.190722604308471
73,73,-4.42929745569142,-0.0534495857275791,0.925745393733932,0.0111964172384695,-0.0326231387086292,0.0742672062389741,-0.195967938668481,0.400172674552704,-0.384339838354393
74,74,-4.42929102728211,-0.0540820794432676,0.926318586682604,0.0127824455364527,-0.0329367886060439,0.0697262919455191,-0.211762677122227,0.332461404385488,-0.5161829743635
75,75,-4.42922851820189,-0.0546614366738436,0.926813479295462,0.0146774161144641,-0.0313890122682922,0.0641233816630481,-0.199782193641888,0.252473527096795,-0.652439107706342
76,76,-4.42910617132167,-0.0551904710231709,0.927230726929764,0.0169893458192966,-0.0296375148562721,0.0569757797141429,-0.164842718028791,0.320989190103519,-0.804571917795872
77,77,-4.42894565470139,-0.0556556768955919,0.927587300923615,0.0193143740556027,-0.0283761348642928,0.0481666266721514,0.0166123146202971,0.359487249088811,-0.804245277718967
78,78,-4.4287518081715,-0.0560539430862694,0.927878431067715,0.0219971392581422,-0.027527747823969,0.0383528094155248,0.161821880700347,0.406815266583077,-0.847294067047935
79,79,-4.42852920297609,-0.0563813848243982,0.928099365796166,0.0237869432367717,-0.0259784584886548,0.0281684060928485,0.248556764617751,0.3925684957486,-0.845509276405886
80,80,-4.42828221624792,-0.0566336151388989,0.928245466036456,0.0250905307170447,-0.0231856383339362,0.0183476910387425,0.290197493470664,0.379275606775174,-0.898260550160151
81,81,-4.42801102851149,-0.0568072258882639,0.928317715638761,0.0263375569508655,-0.0184275824744622,0.00927317030872108,0.266556475574302,0.331981135650986,-0.917604943786498
82,82,-4.42771219433996,-0.0569043623115332,0.928318301743033,0.027563383718438,-0.0127580246540859,0.000559111738451864,0.270538228317302,0.344780415926975,-0.901028245020554
83,83,-4.42738471733333,-0.056928941984613,0.928244719304694,0.0286160112452942,-0.00709447913591791,-0.00814214809759289,0.250228639929587,0.294013407130876,-0.855696914818078
84,84,-4.42702776560701,-0.05688502977249,0.928094671970353,0.0296955012187519,-0.00120734482020108,-0.0167732788741226,0.212172934630821,0.220864930723299,-0.798469449544499
85,85,-4.42664062994221,-0.0567767878978161,0.927866059887346,0.0308006297563713,0.00411323299626523,-0.0254508564747237,0.17862607427156,0.162157590599367,-0.844762313854602
86,86,-4.42622108426459,-0.0566009774312229,0.927554069202919,0.0328241911317416,0.00835204626348377,-0.0341331572790665,0.0911603446437391,0.177813907583766,-0.884336662300479
87,87,-4.42577015336798,-0.0563552377828602,0.927161206296477,0.0356287868062019,0.0139652877642605,-0.0428280460022016,0.0504905871902839,0.0604497475244071,-0.885757973453888
88,88,-4.42529211344053,-0.0560450157402245,0.926696644979211,0.038924919252991,0.0203284527514058,-0.0512009006000045,-0.0986297034091216,-0.00127722463074816,-0.873391394147873
89,89,-4.42479126306746,-0.0556755481469553,0.926169768477881,0.0409803070628062,0.0255348743532058,-0.0590054541231186,-0.0808379574445179,0.0763885445105654,-0.743052645951914
90,90,-4.42427186935791,-0.0552517474600556,0.925590202919834,0.0419068131040252,0.0305506332775284,-0.0657988543547529,-0.0561329333236649,0.113235284194508,-0.683002087580037
91,91,-4.42371765754344,-0.0547697940515582,0.924947818067129,0.040798423585666,0.0358825626370232,-0.0716789772298096,-0.013875981954141,0.194064116808802,-0.578582207766217
92,92,-4.42312669927828,-0.0542261502904689,0.924239731268501,0.0378558150517697,0.0416712598646909,-0.0767613387409805,0.0810218016003055,0.264423018002475,-0.507452537114665
93,93,-4.42252457544018,-0.0536261820523611,0.923486458238047,0.0342002377665862,0.0482836062809003,-0.0810296271671623,0.174778273194126,0.270299965880865,-0.452911023618168
94,94,-4.42193667367457,-0.0529758308433554,0.92270812709609,0.0311446571270177,0.0552788691026863,-0.0841853505150739,0.229519158754892,0.251017270463685,-0.381376805811904
95,95,-4.4213882440899,-0.0522817161886555,0.921924370772203,0.0290036246755781,0.0614834200272022,-0.0862563069315104,0.341944755050587,0.25388041256529,-0.413090679941167
96,96,-4.42090070373775,-0.0515481809353249,0.921127519741509,0.0277739442862281,0.0657184375329852,-0.087597046301228,0.462490357255545,0.332393806501239,-0.36327620874881
97,97,-4.42045785557373,-0.0507724431183759,0.920310551581284,0.0279244058638792,0.0704335329095441,-0.0880938569292351,0.4821673971429,0.258478665185487,-0.385304096402193
98,98,-4.42002848901401,-0.0499506699196635,0.919490928611833,0.0294282001156291,0.0751483821871648,-0.0874543003763895,0.45981323391361,0.220983009427906,-0.441615049191879
99,99,-4.41958115543151,-0.0490784928932477,0.918681852030745,0.030053473961228,0.0785266736935551,-0.0856326649992319,0.481523071340173,0.186007951935115,-0.40027813835924
100,100,-4.41908411791963,-0.0481509465961114,0.917892552787865,0.0258353551584419,0.0832573772401733,-0.083748376969715,-0.0187877788043424,0.0768613634090152,1.15018849895828
101,101,-4.41853841112985,-0.0471248313029736,0.917070013042968,0.0234697081433245,0.087843611706392,-0.0679900731872848,-0.758132141215483,0.823460787745609,-0.512258169476272
102,102,-4.4179668912195,-0.0460043305047456,0.916206984573666,0.0189813461884155,0.0887465027885137,-0.0593174726690306,-0.537212957064367,0.168487908723802,0.202522965420371
103,103,-4.4173692927344,-0.0448547337669559,0.915378029894588,0.0194290171130347,0.0922384726119414,-0.0529775875413623,0.0150191435492648,0.718388592861927,2.45673272460814
104,104,-4.41674317397215,-0.0437407620983585,0.914655466754321,0.0299063596962999,0.0952621169836486,-0.0394624998604716,-0.18110108665412,0.48053045897103,1.68507772946672
105,105,-4.41608375511027,-0.0427264169464508,0.914109520878971,0.040814096868755,0.0919692530194176,-0.0274246293785127,-0.383864665330698,-0.212988035771941,1.5712099590199
106,106,-4.41541707828162,-0.0418379654769453,0.913781466354743,0.0452693145642646,0.0829952627937337,-0.0153510674330339,-0.508533249637687,0.220156264987259,1.75601436818828
107,107,-4.41474356575721,-0.0410318650630049,0.913621126578977,0.0461052535526014,0.0697430016886729,0.000747608715231488,-0.486871527502457,0.9657996586571,1.66027497100525
108,108,-4.41401907638345,-0.0402663695060293,0.913560598413783,0.0475187769125703,0.0557633735281337,0.0186849320567033,-0.607189751681468,0.809530170707078,1.65449327051227
109,109,-4.41320007259964,-0.0394994318649432,0.913531814153367,0.0515893850495386,0.0458360754781255,0.0348496371277621,-0.695455575346804,0.693306156525724,1.44449757547763
110,110,-4.41224357087508,-0.0386890664499301,0.913466709520304,0.0559792127837093,0.0455002591267815,0.0436283172426074,-0.613217368705754,0.499151157858482,1.05249160426233
111,111,-4.41105358014795,-0.0378686793451933,0.913323719308,0.0639174430339009,0.0528215917325601,0.0451236716242178,-0.515106189730814,0.33597376637173,0.713354261141404
112,112,-4.40965847755435,-0.0370657506391955,0.913146909585327,0.0771569774216917,0.0670226872640604,0.0433207769427485,-0.870658607504077,0.265573419496246,0.0355065872585844
113,113,-4.40820229557111,-0.0362293551025976,0.912997805479832,0.0914171774626841,0.0806564302709349,0.0375050281756179,-1.15091417925051,0.730613366649669,-0.18020994640982
114,114,-4.40682904959127,-0.0353078672124997,0.912939191261868,0.102049971423935,0.0915361280744372,0.0301970903706938,-1.16715529378119,1.19699943950522,0.160861935376502
115,115,-4.40568254013315,-0.0342485219814867,0.913035349199541,0.107829136128383,0.101169934204243,0.024520891664714,-1.11177339329569,1.11195626565817,0.330036101964519
116,116,-4.40481870249231,-0.0329972958853173,0.913353336867671,0.106988656194805,0.10987996778081,0.0199634031466495,-1.22976007891543,0.87916097759547,0.609465349978801
117,117,-4.40414103818194,-0.0315864212068214,0.913857478035001,0.0995454772217245,0.113238146782715,0.015326541684125,-0.98058731435537,0.92905807521339,0.421062309100268
118,118,-4.40356481071582,-0.0300917839771497,0.914457908423479,0.0887133723523311,0.116513523021797,0.0106505570731276,-0.523806858089627,0.564481055808156,0.305170762552993
119,119,-4.40300602132463,-0.0285901119917801,0.915061912659555,0.0794339530057887,0.122566669542369,0.00738200004266653,-0.239177050978505,0.0326542248365076,-0.113072791413957
120,120,-4.4023813775739,-0.0271592798857165,0.91557329005381,0.0732495356855942,0.126496550342794,0.00607966279104994,-0.0977892191225777,-0.102459591873377,-0.477074901003974
121,121,-4.40164894875203,-0.0257653564888703,0.91593041236973,0.0702642595235562,0.130873429076859,0.00461082773802073,0.17711365353346,-0.257892340534613,-0.46468890031622
122,122,-4.40086516659292,-0.024352228831191,0.916202494276911,0.0668811040689011,0.135101885161851,0.00303185180762747,0.314403678711154,-0.241344895671428,-0.260181731383913
123,123,-4.40009571565104,-0.0229698626106305,0.916483087707451,0.0627324532436577,0.137556893650665,0.0017521170116277,0.520767370580433,-0.0666578892464864,0.0345452653574013
124,124,-4.39940731008226,-0.0216741761194681,0.916860233516737,0.0581915133321414,0.135817803634602,0.00157172622126811,0.421818993714537,0.125672149710208,0.163616437821224
125,125,-4.39886687207558,-0.0205265370509567,0.917416918910254,0.0504522508962339,0.129862721851834,0.00349828351035021,0.535661211346464,-0.0555840831226934,0.327678517037493
126,126,-4.39847425704796,-0.0195701722363348,0.918214369729827,0.0430717717470447,0.119469837336134,0.0100064440713129,0.537860655136561,-0.44596239104813,0.385136112474143
127,127,-4.39818664393377,-0.0187747153387949,0.919190178197999,0.0374078013395025,0.106564327447502,0.0201741701778421,0.237197382149102,-1.04837150144072,0.123293939912425
128,128,-4.39800542777387,-0.0180907999241437,0.920239930394567,0.0325605832295684,0.0934364945378243,0.031262876003355,0.112706103559127,-1.43714340232865,0.156895114933756
129,129,-4.39793095492136,-0.0174652068935102,0.921260317423132,0.0281208823556005,0.0771794539554787,0.0411312197226509,0.179768441060208,-1.29314682526543,0.137410432569482
130,130,-4.39796285314227,-0.0168415961349377,0.922148861816453,0.0251018492252959,0.0607626342456221,0.0484261958143138,0.168684624968692,-0.955398691761845,-0.0310530047412453
131,131,-4.39816994579448,-0.0162337135873188,0.922908280244558,0.0219902481050043,0.0483387866066779,0.0531692093978286,0.186482034257311,-0.820385628477279,-0.248473825511201
132,132,-4.39855067079961,-0.0156785966335324,0.923605367871007,0.0178556394601724,0.0394365378787228,0.05679250636138,0.224184339583318,-0.932330117930057,-0.391368803873725
133,133,-4.39899898173645,-0.0151509859502007,0.924233247088917,0.0133239518339872,0.0304594002099488,0.0587306112685401,0.296089430754842,-0.669522497700888,-0.520405779137026
134,134,-4.39940901127619,-0.014623602291927,0.924783589621019,0.00777967115600283,0.0209697432769708,0.0576926223667105,0.55819720994712,-0.585230947267246,-0.685342193651966
135,135,-4.39967486847435,-0.0140677109987656,0.925246955204457,0.0035353635702188,0.013788556232358,0.0537920901706034,0.745899234776178,-0.669756356141685,-0.815342194256821
136,136,-4.39979197463266,-0.0134354685899073,0.925628387339867,0.00335622342490053,0.0101438509007685,0.0469762416307111,0.729768454235073,-0.713740481007085,-0.969735449256989
137,137,-4.39982953934545,-0.0127423115027993,0.9259313245745,0.00699471061247629,0.00967207118753847,0.0374547722205777,0.497069676053138,-0.577875179282677,-1.14109099028275
138,138,-4.39979230293167,-0.0120549345529675,0.926143610744023,0.0112133859003829,0.0108937569829739,0.0261543183877219,0.406141386012006,-0.419751591455984,-1.26154921277599
139,139,-4.39968539878013,-0.0114411341306761,0.926253163959757,0.0157687951437584,0.0139323621856222,0.0147291476298765,0.315681327874054,-0.360529067837523,-1.36297153715287
140,140,-4.39951447869662,-0.0109692737823963,0.926248044377842,0.019105604662759,0.0158820990444365,0.00442343296569509,0.259401452313646,-0.238314434457731,-1.35449192658913
141,141,-4.3992663473069,-0.0106453466633909,0.926118819014801,0.0211442262880352,0.0155449914725379,-0.00475445481660243,0.197680266564111,-0.209143873009642,-1.24704795985952
142,142,-4.39893745143236,-0.0104247988142689,0.925873698786075,0.0223992163868371,0.0137690199297977,-0.0137706198630797,0.229977614241215,-0.249925196170518,-1.11486059343935
143,143,-4.39854846628539,-0.0103001246538058,0.925527709556982,0.0238980779753511,0.0109375656089095,-0.0230510312522013,0.280184233998513,-0.365955769505449,-0.948630627395488
144,144,-4.39812027424742,-0.0102634788840388,0.925096296222429,0.0255678139487551,0.00787774398287464,-0.0325633338406982,0.264369004611061,-0.463341191311474,-0.87464305444896
145,145,-4.39767388153603,-0.0103064010821321,0.924595459891894,0.0275075037570405,0.00454030603160932,-0.042126819227891,0.238932568720051,-0.575058566634284,-0.823892628533022
146,146,-4.39717198398115,-0.0104278405271745,0.924023051952762,0.0308654509105733,0.000573247498209139,-0.0515214443068342,0.191343807305623,-0.679402932420738,-0.835111802214789
147,147,-4.39660246952072,-0.0106327382747587,0.923374070640781,0.0350536402108212,-0.0042876427217586,-0.0604183352630855,0.141640837342734,-0.641147549629826,-0.851406362804282
148,148,-4.3960237542365,-0.0109210407555089,0.922660010305408,0.0389794453167707,-0.0100915374093885,-0.0684764618702063,0.0871617276467807,-0.565455606921791,-0.852820856974998
149,149,-4.39549360065446,-0.0112929373298752,0.921890765625667,0.0412861293556691,-0.0153185045075511,-0.0759175668860239,0.0906389776703578,-0.571844107138018,-0.862622193156957
150,150,-4.39506911666909,-0.0117490050794802,0.921074125320368,0.0410207884363748,-0.0214879779326845,-0.082088750203664,0.0947845050263755,-0.523996286896454,-0.840613485260328
151,151,-4.3947720242895,-0.0122971557090331,0.920161314586555,0.0367224522065545,-0.0304449753433741,-0.0885726101688693,0.0832253905842579,-0.462502880610315,-0.726838558100545
152,152,-4.39456492549882,-0.0129358002649413,0.919152927203656,0.0296714725847727,-0.0416910169035791,-0.0953716911320959,0.167087634814369,-0.432772629457408,-0.622430077833962
153,153,-4.39441530227093,-0.0136520919070425,0.918126618215352,0.0215673587244429,-0.0535164224333653,-0.100153649535629,0.104774254212051,-0.312755249253967,-0.369750674414935
154,154,-4.3942899754244,-0.0144339232520165,0.917156362813204,0.00974790275923027,-0.0635177744657868,-0.0975861699740222,-0.591141734348956,-0.147525508404823,1.02029607174185
155,155,-4.39415523055553,-0.0152699009943361,0.916312325526387,-0.00493292495244838,-0.0638104032943067,-0.0887509163270362,-0.0864787923817188,-0.0692012489415608,-0.445517029562999
156,156,-4.39398798472736,-0.0162297286913221,0.915562330661998,-0.0156043803514222,-0.0547825141321078,-0.0783210921889923,0.615093144011545,-0.434132279767976,2.26345590176404
157,157,-4.39381021171723,-0.0173214316690799,0.914857511374151,-0.0157791097059855,-0.0502835303748274,-0.0577756096452186,0.481917490408502,-0.282618184337515,1.29535021088048
158,158,-4.39365511755188,-0.0184415730012335,0.914239238729555,-0.0130300908155614,-0.0419214139628465,-0.0370617249756331,0.631585429433245,0.0539178930906958,1.89095059837027
159,159,-4.3935554142779,-0.0194866130300562,0.913747518738014,-0.00620525269438106,-0.0315280870270314,-0.0150064137522199,-0.624975758265037,0.106141767683665,1.8238986229022
160,160,-4.39354342276569,-0.0203529713725538,0.913421317565315,-0.00137684543213536,-0.020513128090461,0.00165148831124092,-0.855721057160232,-0.439310030118826,1.56135810668796
161,161,-4.39362378250517,-0.0210027585363129,0.913294129082331,0.00458130336091685,-0.0161737800778911,0.0121774030766799,-0.777595274734926,-0.418093085902357,1.4338499998653
162,162,-4.39377375236995,-0.0215050216230174,0.913336217743952,0.0164978326098718,-0.0149068673837259,0.0198182721972783,-0.611651047749307,-0.435832223423549,1.19911941840547
163,163,-4.39398477829211,-0.0219173365662529,0.913491202257189,0.028956367525681,-0.0181285310989977,0.0252636232873358,-0.609314609197634,-0.161736255633353,0.820398944740417
164,164,-4.39424886167609,-0.0222981434760851,0.913702752342426,0.0347996449744913,-0.0317112441678945,0.0296778716628698,-0.804448561764852,0.465113488225614,0.550728624428594
165,165,-4.394558491701,-0.0227067093624299,0.913914779122851,0.034760561916496,-0.0475224631756352,0.0326736084015302,-0.977647376434438,0.665901701268903,0.348794721159783
166,166,-4.39490833597142,-0.0230939218390937,0.914147314118513,0.0250180447277488,-0.0625718446635109,0.0326037411769429,-1.25606040816479,0.505771596481455,0.303085344433058
167,167,-4.39530393645401,-0.0234230393092175,0.914436707719736,0.00343465467214428,-0.0794888271451374,0.0306661707308276,-1.28241845658995,0.529457062737881,0.14210603393988
168,168,-4.39575420946139,-0.0237717155957438,0.914753002145243,-0.0223481218928873,-0.0897931433388406,0.0268546410394443,-1.55105450717675,0.444392476808491,-0.0704138039801502
169,169,-4.39626807044897,-0.0242171631161541,0.915067214626278,-0.0445950735556895,-0.0924674991400958,0.0233192471524776,-1.67198363167579,0.461392685515582,-0.258094852076703
170,170,-4.39685438798615,-0.024836000433024,0.915351082733214,-0.0587350839740427,-0.0888169350301237,0.0210703841499767,-1.39616131472621,0.245083102207816,-0.349482185748862
171,171,-4.39759323633257,-0.0257484823102479,0.915609094559415,-0.0656892708437693,-0.0803303949432913,0.0190009686069246,-0.908077737746065,0.0185739473486841,-0.292775332717064
172,172,-4.39847913772557,-0.0269043973606844,0.915866200575596,-0.0705925380793715,-0.0730622353277315,0.0165092763663096,-0.281498519322102,0.105022804619996,-0.274638259936354
173,173,-4.39939255573335,-0.02812296348076,0.916124103715114,-0.0736980068877259,-0.0704209731479286,0.0147879146157927,0.196253780207525,0.299281052869512,-0.194045889819673
174,174,-4.40021410949346,-0.0292225689494206,0.916381864885786,-0.0718135291373616,-0.0723708504240695,0.0149733775464691,0.390958203455512,0.161892154647699,0.0945067046370987
175,175,-4.40082452335091,-0.0300208903356726,0.91663560008241,-0.0641174557919475,-0.0757015004418883,0.0176803726765228,0.588329281049705,0.0392386774337807,0.315406888700072
176,176,-4.40116461072598,-0.030387266976338,0.91684884304038,-0.0508781049819323,-0.0750577346573457,0.0229602297699715,0.888442993978546,-0.181350825294896,0.604047689532747
177,177,-4.40131568547199,-0.0304422576698078,0.917026115784779,-0.0355989138049773,-0.0736842333102824,0.0297068739985419,1.15398716533702,0.0584360130347232,0.718365138092418
178,178,-4.40136835848738,-0.0303787746139446,0.917220779786041,-0.0219369078628049,-0.067220418887744,0.0373850147815986,1.10539093937388,0.125344691765366,0.465833053091424
179,179,-4.40141158799512,-0.0303882925515936,0.917483387320639,-0.0122096696134611,-0.0555349700791199,0.044543707666407,0.866092253734093,0.0881642604200025,0.548830131742535
180,180,-4.40153275319665,-0.0306610932949377,0.917861908389867,-0.00445807200554616,-0.0387652142354767,0.0525506016344565,0.372044476434219,-0.00145233768832848,0.593529500330993
181,181,-4.40173124928711,-0.0312959072409927,0.918380775112976,-0.00288047711719059,-0.0258924974216883,0.0606180769053284,0.269258716265636,0.511781993586116,0.511703910781839
182,182,-4.40194785084711,-0.0321606184883187,0.919003370322945,-0.00626279913789519,-0.014378668204692,0.0687073576334315,0.195881094146844,0.714878724674946,0.602619446779368
183,183,-4.40218118560691,-0.0331010286488198,0.919685262288825,-0.0103956670173562,-0.00283396065242746,0.077324581979349,0.171225692688283,1.07751741692848,0.578648028596547
184,184,-4.40242908373716,-0.033965825763997,0.920382865854902,-0.0158429466799775,0.00508925930246484,0.0842576909556572,0.235992078485638,0.929852031047156,0.413995802088855
185,185,-4.40268851436566,-0.0346062295894597,0.921053266508145,-0.0179424861976327,0.0104700308273055,0.0885124875440666,0.228084885247713,0.863916985884893,0.208297246757782
186,186,-4.40299449092444,-0.0349803694184536,0.921717941795508,-0.0186210242526009,0.0128804357459449,0.0887909279428299,0.015951410409059,0.640115729981129,-0.00164825048144008
187,187,-4.40334828585598,-0.0351900959574433,0.922404564580651,-0.0190325839785936,0.0137309188293753,0.0861607270739856,-0.0188573175510253,0.451549458349775,-0.192890746299603
188,188,-4.40369617742243,-0.0353038889228305,0.923079078360194,-0.0182987636617923,0.0141083917373593,0.0809838771902813,0.00982310215879401,0.256293338157797,-0.499414893564979
189,189,-4.40398414376254,-0.0353899306845818,0.923706274956503,-0.0169096439804506,0.0142890133916774,0.0736742419161684,0.230969060539759,0.119798594658513,-0.705144694753179
190,190,-4.40415759663567,-0.0355160034917047,0.924250029094299,-0.0134167335147768,0.0143611900629509,0.0655701018934541,0.354419156832445,-0.0029132164477136,-0.952538056864424
191,191,-4.40419601140075,-0.0357042862561814,0.924714426298155,-0.00688951299256783,0.0118642416582864,0.0557977047900069,0.498107298009449,-0.0791023385773044,-1.0419956139132
192,192,-4.40413527930347,-0.0359109643031422,0.925120705849648,0.0026983260712686,0.00694463350332714,0.0443999510939156,0.57689217344332,-0.0683667663069326,-1.05527859886381
193,193,-4.40400472905945,-0.0361035506387031,0.925458214268106,0.0134323376358231,0.00112270091212023,0.0323512792508577,0.55301899808556,-0.0520259414940856,-1.06926821352336
194,194,-4.403833485874,-0.0362485687528245,0.925716588011466,0.0233701347263403,-0.00285332754251757,0.0204325413345582,0.514811495467295,-0.0284038567722105,-1.01974130454383
195,195,-4.40365057336592,-0.0363119742960207,0.925885810947677,0.030172308248723,-0.0037684956502618,0.00936014025276116,0.490545275792992,0.0353175202254847,-0.983159061753783
196,196,-4.40346595054172,-0.0362949203603694,0.925963542977873,0.0333421581511072,-0.00170339572513934,-0.000596719592273533,0.451901215612208,0.170548727230728,-0.961190092773362
197,197,-4.40325972095389,-0.036219019027884,0.925955960405559,0.0352243986731868,0.00332150452093553,-0.0097566023951106,0.363713843833971,0.232436179272059,-0.923656493159151
198,198,-4.40301628578019,-0.0360809366137362,0.92586626608385,0.0364010574878323,0.00965936041483259,-0.0181540147069692,0.338242203074416,0.260446949630426,-0.905156069762698
199,199,-4.40272024938471,-0.035877513098743,0.925697866243417,0.0372815724111113,0.0158087908819491,-0.0263372829188319,0.373089608524291,0.18571204460485,-0.891375926597661
200,200,-4.40235636382026,-0.0356056959759672,0.9254543791768,0.0387208098787848,0.0203512450546039,-0.0343530194067554,0.287453006982043,0.134467513829125,-0.875223614393391
201,201,-4.40192551457595,-0.0352497876251705,0.925127594854341,0.0422229569886437,0.0242591743978306,-0.0417402597999371,0.100344473279374,0.091176372990932,-0.872029872019785
202,202,-4.40143864624949,-0.0348121895372262,0.924716827428147,0.0465082013315092,0.0281957441382875,-0.0488410074993622,0.104427756872665,-0.010480621983054,-0.82666621052058
203,203,-4.40089566371348,-0.0343169809112964,0.924237249284628,0.0504168677536439,0.0316335167147383,-0.0557210219031023,0.0569256604625387,-0.0558520241822065,-0.7220811587045
204,204,-4.40029642436479,-0.0337880826313185,0.92370410899103,0.053715250557904,0.0350319202197356,-0.0622512601716459,0.0867808116017536,-0.119966129819739,-0.606519706679776
205,205,-4.39964069292425,-0.0332491614992037,0.92313271768243,0.055901485604272,0.0386008051540071,-0.0680952255493416,0.0883586998574221,-0.147488520348923,-0.49472949458955
206,206,-4.39887542171073,-0.0327188035793348,0.92250960928681,0.0564274254783044,0.0415071937546162,-0.0731781997710444,0.112342078028978,-0.158361022852477,-0.427442121456174
207,207,-4.39800186683816,-0.0321812555109539,0.921828829137863,0.0560149763710098,0.0428127989018409,-0.0774762979783497,0.13768885357292,-0.135748136573636,-0.391563368380161
208,208,-4.39710092981843,-0.0316088993766442,0.921116393766745,0.0548355878427255,0.0436143725883789,-0.0807461946960768,0.163930738307529,-0.0614375224028082,-0.3573681251064
209,209,-4.39625322715577,-0.0309748364755323,0.920397222227403,0.0537010876131398,0.0450197159840406,-0.0824880324557134,0.246414323001028,0.0127832694533423,-0.351274717861801
210,210,-4.39553911691008,-0.0302529304404194,0.91969493305482,0.0531561381844715,0.0471229995066459,-0.0827475372106005,0.252422777978441,0.164548261943196,-0.378727438766555
211,211,-4.39502042211059,-0.0294192973691873,0.918997929916026,0.0521532706860838,0.0518305262404266,-0.0819836983977364,0.318236032041267,0.303813005203178,-0.320858355633378
212,212,-4.39464414670238,-0.0284941515627846,0.918294599855489,0.0499639245820228,0.0600382660552047,-0.0803853198583153,0.438235031736508,0.309798869405714,-0.227533572828557
213,213,-4.3943181730354,-0.0275171303021394,0.91760547734892,0.0458014061479513,0.0693389358467607,-0.077697853818398,0.665174614556601,0.288950346482551,-0.141240946527323
214,214,-4.39395003554882,-0.0265264488964919,0.916947977018737,0.0418939911030551,0.0776591409337238,-0.0739532726116076,0.838908515877734,0.169412514263915,-0.183497648489458
215,215,-4.39344692744613,-0.0255589032539822,0.916336670960457,0.0341570266158311,0.0836325832009614,-0.0704348446191197,0.307943450954736,0.121840317993001,1.54378196747616
216,216,-4.39276290557907,-0.0245664178224166,0.915723484131808,0.0342691361097466,0.0868491969693424,-0.0496778972531007,-0.689738217806969,0.570602184375079,-1.14715766680994
217,217,-4.39196127091532,-0.0235247831182754,0.915098170647113,0.0315132881032756,0.077577477852734,-0.0400868787860201,0.0514355577138551,0.24498805289896,0.404986481773428
218,218,-4.3911117223953,-0.0225049712591645,0.914528925029078,0.0408946682977822,0.0735830058803187,-0.0301361152082277,0.0116529835147871,0.292611159638329,2.37077985345068
219,219,-4.39028172257863,-0.0215767870241105,0.914081157930051,0.0526288629665628,0.065870227422964,-0.0152872121056423,-0.138326047598092,-0.00922978512879849,1.77176347551549
220,220,-4.38953649773686,-0.0208088471153932,0.91381775591247,0.0585612109337971,0.0547949189795761,-0.0056714828408374,-0.777866327269114,-0.637053184765677,2.43715093154952
221,221,-4.38893403726289,-0.0202703914454859,0.913792885158403,0.0643661133303272,0.0419984081958,0.00644578113019039,-1.23187689424147,0.209807740239674,2.21171465287156
222,222,-4.38842813252582,-0.0199136621730611,0.9139599023175,0.0629628320872755,0.0276556251357825,0.019515452018463,-0.681954183333572,0.761079872415332,1.40118015182457
223,223,-4.38792703060463,-0.0196312559065674,0.914230092790529,0.0576840555336501,0.0157379029490214,0.0295507150427205,-0.277000310345563,0.546379280890604,1.22420476255912
224,224,-4.3873395262789,-0.0193159304844724,0.914515594747153,0.0543883748907253,0.0109322545326042,0.0394470555682327,-0.354570384979845,0.442550585100465,0.611558710494587
225,225,-4.38657484343186,-0.0188607217729716,0.914729380321998,0.0563897295661293,0.0164286725028394,0.0446245222708499,-0.489281865228874,0.0702939919600747,0.0575505257122855
226,226,-4.38555152187804,-0.0182501801618301,0.914846458522942,0.065232728876016,0.0292019840846469,0.0444708554015856,-0.900201313447304,0.046121935374627,-0.0897596207186763
227,227,-4.38433013468,-0.0175558054996532,0.914924734017376,0.0754173620257887,0.0423178743346959,0.0418336664754332,-1.14097914728431,0.743933896577881,-0.347643512033351
228,228,-4.38303326513575,-0.0168010899491694,0.915002928067636,0.0841685315788633,0.0547876891683786,0.0354265594056373,-0.979619179760294,1.13942748253495,-0.170257933565418
229,229,-4.3817832715013,-0.0160087080377739,0.915120670327955,0.0911285553374059,0.0694384114683328,0.0281974720117018,-0.786820467688526,0.80137171007372,0.42509685288935
230,230,-4.3807020681412,-0.0151999392146414,0.915318611736754,0.0958492880272783,0.0778497313676305,0.0228940691955896,-0.738874235052716,0.577605695402755,0.468041527113583
231,231,-4.37979813580825,-0.0143422167965627,0.9156262853807,0.0956772222231949,0.0752989594815658,0.0174390064596286,-0.516132766304106,0.392758753232474,0.438605283382287
232,232,-4.37898949199885,-0.0134175219881831,0.916022962678395,0.0942591616096793,0.0716459110929012,0.0117153879178031,-0.49865427974259,0.0904208350965958,0.148563883773761
233,233,-4.37826238023524,-0.0124686104119788,0.916473051623841,0.0933657648902438,0.0697970764544337,0.00634220482166605,-0.504891274942509,-0.179898813963479,-0.231718877957999
234,234,-4.37760372937908,-0.0115405714040585,0.916937947274093,0.0905371187289544,0.0665190294423808,0.00194751378573688,-0.320836381646734,-0.276232026585103,-0.511258289419819
235,235,-4.3770011065239,-0.0106812617153013,0.917375600782627,0.0859810709554482,0.0623911441135853,-0.000812244999491937,-0.0683650708462924,-0.195708872835799,-0.661999814362582
236,236,-4.3764584982517,-0.00988002988027711,0.917768975330725,0.0791167169357098,0.0589841833937468,-0.00284162747940547,0.096054072940816,-0.214761678633193,-0.573673164788826
237,237,-4.37598518683427,-0.00910404052092769,0.918148304290884,0.0702251114142694,0.059374671561105,-0.00443023354659399,0.262101904309325,-0.23720838810201,-0.338300187430937
238,238,-4.37557772282584,-0.00837223963551212,0.918537159423089,0.0590373873307421,0.060615628341426,-0.00539147974236719,0.375153801824186,-0.120044404022981,-0.0447133863362186
239,239,-4.37523319965766,-0.00770675715138062,0.918955310626788,0.0484474697516407,0.0626469244817654,-0.00475332560994473,0.0932901879441308,-0.239848319128429,0.146776236264573
240,240,-4.37494865442949,-0.00713249717068402,0.919419130301408,0.0386134378908383,0.0605176921456029,-0.00113726487516255,-0.0401194209746505,-0.27673303986127,0.287622079337047
241,241,-4.37470475449237,-0.00667555583161167,0.919944899813709,0.0291924578052958,0.0547433235688601,0.00624908718673819,-0.144737928606101,-0.63126521441845,0.205943378898884
242,242,-4.37450468333332,-0.00632596153031119,0.92051577547048,0.0216329814820115,0.0471549973981175,0.0166963730353245,-0.171013698760709,-1.00600808801681,0.29404839006708
243,243,-4.37437787048759,-0.00605358946594339,0.921097343878817,0.015022857179746,0.0369598399297888,0.0274065318441834,-0.021289976594829,-1.25316595994567,0.354553103366369
244,244,-4.37435303313565,-0.00582571517308707,0.921656045952177,0.00938589548754819,0.0236664555615606,0.0372061677811324,0.0362405082253234,-1.1092581164336,0.321764517172712
245,245,-4.374458498674,-0.0056076109391116,0.922158941453772,0.0041326463209783,0.0100543180747844,0.0437964467830066,0.0611102506312579,-0.897450252277991,0.0538847212135381
246,246,-4.37474878486365,-0.00538958915258297,0.922619614708617,-0.00166240557140672,0.000110141744968785,0.0461503547483914,0.0968045835835309,-0.902057585926086,-0.209894989976667
247,247,-4.37520354737998,-0.00519378317232733,0.923058396862865,-0.00873346387799947,-0.0085263266214642,0.0456032717610145,0.206182431218984,-0.854709790497312,-0.47528032581134
248,248,-4.37573868867876,-0.00503099006411551,0.923452376645133,-0.0160430335687566,-0.017085818089824,0.0426982169021435,0.219280696582478,-0.794160113698992,-0.768125434689497
249,249,-4.37627013412805,-0.00491102041052114,0.923778044516779,-0.0220312482913171,-0.0242128707467454,0.0378742838693884,0.270416486560778,-0.877986392143102,-0.89817860585379
250,250,-4.37671379457296,-0.00484310137805007,0.924011508554606,-0.0244667672018656,-0.032587017431783,0.0324856937203788,0.205600834878039,-0.52796380596196,-0.954438480354912
251,251,-4.37707976108692,-0.00480132504642913,0.924154886516207,-0.0267261636898274,-0.0406943227545649,0.0248744866078123,0.40808463032583,-0.452349246380717,-1.05777038311583
252,252,-4.37742316628028,-0.00477761531960982,0.924222640510857,-0.0273923850263432,-0.0444695475485552,0.0151044975076568,0.561790941873492,-0.575712434307343,-1.07575086566618
253,253,-4.37772761752534,-0.00480851162807975,0.924209361302046,-0.0264585433309235,-0.0467072533619592,0.00436095304760453,0.563583694826076,-0.480133426229177,-1.09651901313481
254,254,-4.37797708436874,-0.00493122399716087,0.924109786703235,-0.0247404151439415,-0.0479165170226948,-0.00641544428192596,0.493395249195663,-0.486243570302964,-1.1630993127602
255,255,-4.37815594033966,-0.00518315941979768,0.923919064577932,-0.0224312954902046,-0.0493696796401902,-0.016152183592023,0.381397182003668,-0.553466418730012,-1.14431591902002
256,256,-4.37825567795967,-0.00557704551335822,0.923631134205384,-0.0193150729741456,-0.051486471772124,-0.0253040163662215,0.391122377471431,-0.659257219985337,-1.11559540837907
257,257,-4.37828757730633,-0.00608883430918343,0.923251225214568,-0.0152138435604184,-0.0543924018669321,-0.0346351246370006,0.543103558522435,-0.717072237619685,-1.03886045912384
258,258,-4.37826596852797,-0.00670030089696723,0.922792173198068,-0.010854374912614,-0.0573322490457989,-0.0436682524700321,0.62567364806964,-0.783140993294284,-0.942985273238715
259,259,-4.37820513624499,-0.00739285147932223,0.922266956336667,-0.00680933049132431,-0.0599264567133619,-0.0516234831518292,0.665852108914555,-0.786310814509194,-0.832755998324581
260,260,-4.3781192490123,-0.00814747188108727,0.921688585075925,-0.00409636167621858,-0.0634956169708183,-0.0577724918660259,0.610362559419436,-0.689592900293375,-0.710971331548953
261,261,-4.3779666934365,-0.00895830122265037,0.92103154738297,-0.00155649227818931,-0.068427724356017,-0.0622834516100347,0.524971833298039,-0.651512803045309,-0.603557405538718
262,262,-4.37773995178313,-0.00983777607728888,0.920295052693406,0.00127030787701047,-0.0747753380956962,-0.0654685534448984,0.454563128456721,-0.615371947103264,-0.487524349590107
263,263,-4.37750333469161,-0.0107937035140612,0.91952650464068,0.00405553088230829,-0.0812135516582371,-0.0665497148091309,0.365694314263342,-0.678232715581337,-0.381010594247825
264,264,-4.3773198323108,-0.0118334866552509,0.918768761390066,0.0072166084925948,-0.0874935141612712,-0.0650078921730902,0.209025170393224,-0.643365539872684,-0.315975143984015
265,265,-4.37725131615297,-0.0129641917898366,0.918059740991838,0.00818049212986624,-0.0944477743903582,-0.0593879138602471,-0.473963136523817,-0.495857965828008,1.1110874805129
266,266,-4.37729606938172,-0.0142603231231775,0.917350879157956,0.00431548197723022,-0.0978935752855563,-0.0456460870666213,-0.684068232276343,-0.406470503590772,-0.869996968474142
267,267,-4.37741235881513,-0.0157154608005776,0.916616291928451,-0.00387557107822022,-0.0938563547145826,-0.0377381915683294,0.311036908265959,-0.535874377461251,1.53153166934209
268,268,-4.37760129572662,-0.0172160917287568,0.915923361114432,-0.00522768110869708,-0.0952266215408674,-0.0256476416487539,0.293783362859071,-0.686376380523984,1.26777623419641
269,269,-4.37786355946085,-0.018649837672771,0.915337797355878,-0.00645165488048153,-0.0965687359966889,-0.0157994486536237,0.49390966865669,-0.132292014521616,1.6546380670003
270,270,-4.37819931599218,-0.0199052651428854,0.914923770017183,-0.00930809632224185,-0.0986946651893292,-0.00462195487830829,0.0188218150782713,0.518570998379477,1.6867599411339
271,271,-4.37867275802454,-0.0209671950466984,0.914705004813573,-0.0160982977153916,-0.0952285287525924,0.00647798346062457,-0.281594386948068,0.0923720501870728,1.18021886128585
272,272,-4.37928282288408,-0.0219108615163096,0.914635485969416,-0.025137005578733,-0.0851951042312959,0.0179767163367059,-0.453602814827731,0.0562522747386279,0.995298749771659
273,273,-4.37993162228264,-0.0227610567947449,0.914673739301397,-0.0329766397716279,-0.074111630847905,0.0291344261099086,-0.514300034475891,0.206592810626393,0.777796927580802
274,274,-4.38052155737866,-0.0235426290484536,0.914777991431965,-0.0385862463605654,-0.0649905928843267,0.0370571641476255,-0.768866434877394,0.0784694918187853,1.15964447759084
275,275,-4.38095529457543,-0.0242804510794002,0.914906205860897,-0.0403604810717112,-0.0598156913462554,0.0429120856844587,-0.374989475318298,0.235297462137804,1.36031274485407
276,276,-4.38116381059604,-0.0248720970652095,0.915077104601852,-0.0388220170673321,-0.0600999431575619,0.0435320030960852,0.0939193575777318,0.388702763551968,0.988189734213302
277,277,-4.38121169620974,-0.0253012300242272,0.915315877350804,-0.0359575600026714,-0.066654756710518,0.0405523922627429,-0.0140876187081267,0.266848217953868,0.50244601247569
278,278,-4.38120236239154,-0.0257217355821634,0.915591072312507,-0.0308982449679855,-0.0777378094822355,0.0357198670555477,-0.413586998461362,0.144849177724259,-0.265666802170154
279,279,-4.38123950208327,-0.026287556279658,0.915872308171061,-0.0258561131080022,-0.0880989978888232,0.0297842009999863,-0.955366797102074,0.055028747986084,-0.695700086344423
280,280,-4.38142708536376,-0.0271528854753865,0.916130166287646,-0.0239081703837511,-0.0964255326443056,0.0249228075418946,-1.32246745246284,0.00199652337707194,-0.896735261197026
281,281,-4.38181042603321,-0.0284661339685483,0.91638359072866,-0.0271363832705115,-0.10492066150921,0.0211631836869592,-1.21347957117165,0.0015215485796924,-0.718011610006859
282,282,-4.3823208107961,-0.0301248872868104,0.916653252822591,-0.0333072655443817,-0.114900251489495,0.0173255179893489,-1.04048848268868,-0.000652758234393449,-0.473200230183236
283,283,-4.38289092312768,-0.0319073345322179,0.916913634941349,-0.0398929961817988,-0.123251650445121,0.0137205160272747,-0.772419815603603,-0.0850213821021362,-0.108067197209112
284,284,-4.38345286246081,-0.0335917634140398,0.917140010106074,-0.0447723737523878,-0.128061212714845,0.0111074676784129,-0.545593767537011,0.0430860675841033,0.0819769718197826
285,285,-4.38393836479252,-0.0349566332069819,0.917308619660278,-0.0482551581549081,-0.129715324007573,0.00945138760649915,-0.0394553157895437,0.378555635550531,0.0892556755307758
286,286,-4.3843730200289,-0.0359260690122877,0.917389538184494,-0.0467539527876924,-0.128500594079875,0.00863821613185152,0.354731351803791,0.637035121665284,0.0329250054729703
287,287,-4.38480270086114,-0.0366497681448488,0.917404818986806,-0.0375991045032484,-0.124338445396781,0.00867224725072436,0.360155183570082,0.556343192947938,-0.173467103605637
288,288,-4.38518974243089,-0.0372436600677101,0.917407727291009,-0.0255458118601584,-0.117490618686302,0.00934294092559335,0.600014716411765,0.216161254452896,-0.0509528842917754
289,289,-4.38549610019392,-0.037822078327034,0.917448535369303,-0.0131125997169495,-0.109674064404431,0.0108374578903171,0.889813369708603,-0.016721321728864,0.131588806967402
290,290,-4.38568302401433,-0.0384976686340863,0.917574236230637,-0.00442969573118605,-0.101159933950014,0.014046702472881,0.886622255810831,0.0375383812424452,0.158672552098769
291,291,-4.38571256566783,-0.0392922539669271,0.917777227708689,0.000627321266198101,-0.0913776558629424,0.0203858665300714,0.682214218985757,0.123048829934338,0.270431031727275
292,292,-4.38561146947212,-0.0401296135137204,0.918026617836343,0.00405548878959513,-0.0804472998912928,0.0295208378125167,0.482841567934839,0.272940522091558,0.646018554001016
293,293,-4.38543726742165,-0.0409740551820251,0.918331136870374,0.00531712889714801,-0.0704513030468666,0.0400448014914251,0.383119960492438,0.527076739827334,0.919980358871545
294,294,-4.38524690048359,-0.0417896327701191,0.918698254033398,0.00543753578821126,-0.062332066318738,0.0497779860642194,0.427373812955572,0.634869531093541,0.870884186344482
295,295,-4.38509660813006,-0.0425401075898045,0.919134272624103,0.00370869812827485,-0.0551184002681782,0.056026561539893,0.194351907820828,0.86136454691627,0.836322041968528
296,296,-4.38496724977531,-0.0432484508419963,0.919668304144562,0.000123520523551083,-0.0437942202061855,0.0613305577268304,-0.0073743087140629,1.07116798326035,0.841871820788079
297,297,-4.38482064072084,-0.0439367663135243,0.920294055964302,-0.00400965128836861,-0.0278054125397185,0.0678500286845728,-0.192580319187207,0.969896860745556,0.531964644281756
298,298,-4.38468383313328,-0.0445683586332763,0.920963698081895,-0.00759198478316061,-0.00973882916894804,0.0739651771534137,-0.240642251120082,0.74278250675283,0.268271020348567
299,299,-4.38458391764708,-0.0451078417526847,0.921629003720831,-0.0106438218357339,0.00568114268518242,0.0778487874390164,-0.146556372163296,0.70892846578012,0.0770511024995913
300,300,-4.38454819549309,-0.045521007383393,0.922241348197009,-0.0105330659643685,0.0158827874484592,0.0789176727056308,-0.0526083417566578,0.691297163423188,-0.0744893520352279
301,301,-4.38462986887452,-0.0457696946908827,0.922815283443168,-0.00715343591838602,0.0206143424968948,0.0772103280330974,0.114739688671941,0.520040938170582,-0.295972808575234
302,302,-4.38481072969165,-0.0458781466316599,0.923381485997975,-0.00307064951992047,0.0227153614199134,0.0722626473375103,0.363154316657835,0.407092158531924,-0.511484590089553
303,303,-4.3850108221739,-0.0459060052414522,0.923914135583962,0.00213725839933178,0.0231299320298615,0.0646013637045857,0.612299021935836,0.28483923098569,-0.677103699236601
304,304,-4.3851494305522,-0.0459121556197593,0.9243861494396,0.00792857298472593,0.0226196686797134,0.0553367638472652,0.75380389129262,0.12233983934018,-0.833394610651494
305,305,-4.38514504139107,-0.0459548269289515,0.924769614311968,0.0143606204097139,0.0220367176531963,0.0455928666055251,0.718773616809312,0.0404324005198533,-1.0076239011655
306,306,-4.38498082497008,-0.0460557487057142,0.925068909597916,0.0219131249326135,0.0201507794935691,0.0353099670149602,0.707401029003477,-0.0227288055721785,-1.04079304818758
307,307,-4.38471008416939,-0.0461754521280788,0.925299562833633,0.0316841118232726,0.0155962993064968,0.024510411623294,0.639638937426149,0.0136371948885322,-1.08162577665192
308,308,-4.38435621022827,-0.0462800239155172,0.925450526625795,0.0420981977057226,0.0107639537795212,0.0136546875036309,0.621239539833639,0.0719453672640362,-1.05770146856308
309,309,-4.38394282943888,-0.0463356326820734,0.925511269706493,0.0516588605050176,0.00614694842358458,0.00293955206792038,0.54147371987608,0.118266564823811,-1.01141587693864
310,310,-4.38349375953166,-0.0463085911708176,0.92547173419159,0.0588249434456477,0.00442525794877938,-0.00732314454017462,0.429265140824669,0.126239967336759,-1.00788014906754
311,311,-4.38300224260692,-0.0462177894563689,0.92532451964048,0.0627695136854314,0.00616819463982352,-0.0173906228891522,0.326982600816068,0.0688783289940805,-1.03459702482525
312,312,-4.38245262213437,-0.0460853960864333,0.925077267686105,0.0639500258449675,0.0087158611554307,-0.0275065728362947,0.191936693484727,0.114853840219208,-1.03271523470656
313,313,-4.38185556390568,-0.0458828019077484,0.924743088193055,0.0631843869744736,0.0117863113808963,-0.0373628781226419,0.110379117837149,0.179612681694313,-1.01709729807824
314,314,-4.38122187181995,-0.0455815266211984,0.924335418023159,0.0616898203268272,0.0160404888652903,-0.046743399255904,0.157629541246602,0.195836154005497,-0.975474627776361
315,315,-4.38056247936761,-0.045153232919099,0.92386800751657,0.0609547327607062,0.0213572360591808,-0.0553191879770346,0.172337908795764,0.183788202630576,-0.87902045847456
316,316,-4.37986571783724,-0.044559264795976,0.923339550012464,0.0611772028645393,0.0282325756425237,-0.0632518574582155,0.197257227985446,0.215857648209614,-0.830978069270997
317,317,-4.37912545636139,-0.0438186321871045,0.922745642487935,0.0611861072174592,0.0372783132244416,-0.0706772966895055,0.267078740828968,0.1369693544697,-0.764098949637402
318,318,-4.37836088126379,-0.0429898834835032,0.92209528413271,0.0606433659612804,0.0465118271864611,-0.0774592489714205,0.417541656338433,0.0898436490695161,-0.654184479691717
319,319,-4.3775909590968,-0.0421320606069186,0.921396727224734,0.0606090718146634,0.055660540090448,-0.0830966287170641,0.474751796762175,-0.0547109742268767,-0.632804013107305
320,320,-4.37683447399464,-0.0413047533467786,0.920657234859518,0.0609734866144799,0.062965473250125,-0.0874153678423165,0.52249794309243,-0.103737244429541,-0.639924382827291
321,321,-4.37612142140317,-0.0405176512460914,0.919837311220124,0.0609573665991812,0.0697515894434075,-0.0917895268330629,0.643418933826901,-0.225346950200183,-0.507799395784242
322,322,-4.37544054712505,-0.0397334135695154,0.918939905770691,0.0623816550124258,0.0770186701998235,-0.0954150456711367,0.711359298108795,-0.351366847325817,-0.404044757984557
323,323,-4.37474821239502,-0.0389410347344693,0.91803093916889,0.0646077172936263,0.0813556205417559,-0.0967675234290338,0.592237754465418,-0.244225584076675,-0.531110546607705
324,324,-4.37400003464021,-0.0381286614347211,0.917169976157696,0.066133170203417,0.0826996755868243,-0.096220316235522,0.313841219028536,-0.199014068724626,-0.142331575194972
325,325,-4.37315088566106,-0.0372833648432753,0.916410475079874,0.0622826184447167,0.082060113606336,-0.0847296107541738,-0.71818292757022,0.272902285739014,1.29427958840589
326,326,-4.37216216138464,-0.0363312647871127,0.915719190977347,0.0585331229441239,0.0714366030551588,-0.0622182016953825,-1.3408130002676,0.551092360822911,-1.25137514803535
327,327,-4.3710641567399,-0.0352817910788839,0.915054734388416,0.0590609707543478,0.0600913755216994,-0.0489591371216985,0.661474582197862,0.138573735408895,2.59092692845081
328,328,-4.36991390465346,-0.0342452559784234,0.914455438699951,0.0744051242070957,0.0498832613593817,-0.0262844420042521,-0.0541479672593553,-0.00196639281497194,2.68568358226575
329,329,-4.36876733706743,-0.0333308133776189,0.913960143842603,0.0811143456600535,0.0303684085213889,-0.00666550060568094,-0.736927610052627,-0.184547011844452,2.48239310262433
330,330,-4.36767928549837,-0.0326465107133176,0.913608156011882,0.0830080353428998,0.0149651895242855,0.00519424202337049,-0.783280968495245,0.212188579011524,2.38909294176431
331,331,-4.36665546163127,-0.0323075646124068,0.913444653130538,0.0818187125425361,0.00328929881726473,0.0139097418944596,-0.555397615844355,0.908355580720768,1.47390249658306
332,332,-4.36565706901966,-0.0322395991889972,0.913442189906005,0.0772677442035642,-0.00523525325888286,0.0168971048192784,-0.416561767230132,0.706500980832142,0.743213474265944
333,333,-4.36467189436156,-0.0322654274636594,0.913532104517394,0.0748998981456559,-0.00907940065468544,0.0167364779856902,-0.889406102332102,0.522541200072912,0.581777100268556
334,334,-4.36368841311215,-0.0322080280093474,0.91364602822378,0.077301627261569,-0.00612956332893719,0.0170408095830295,-1.08763421791026,0.470049475101338,-0.158394960054048
335,335,-4.36269592465618,-0.031891108109731,0.913715904237346,0.080941851121448,0.00109810439461104,0.014421533421561,-1.0890795033367,0.405714632553606,-0.483279793812155
336,336,-4.36165797486114,-0.0312328060327276,0.913737746801504,0.088155972769702,0.0143034336142678,0.00979583575004165,-1.24711641417358,0.577073499620563,-0.596321825672423
337,337,-4.36058264009912,-0.0303512109860403,0.913759038287092,0.0972876414876572,0.0329887605378851,0.00201347602747151,-1.27973329552855,0.868793565741213,-0.569458709961163
338,338,-4.35952656462445,-0.0293707102642106,0.913789199453878,0.103256083157919,0.0472454756252823,-0.00747546504432027,-1.08964328104749,1.25517681356346,-0.303273472502998
339,339,-4.35854588761493,-0.028414756032335,0.9138375136365,0.105414010996752,0.0569135440795995,-0.0155025463974472,-0.489011334775976,1.02958052505356,-0.0101447749050843
340,340,-4.35769597837173,-0.0276051063937928,0.913913011093194,0.105946772979788,0.0650338032082015,-0.020266569535764,-0.234382663302433,0.315507483069651,0.241855932064101
341,341,-4.35699351954371,-0.0269432888078636,0.913993464854079,0.107124934066208,0.0697033551447277,-0.0223113259536445,-0.384648939550628,-0.31462439739763,0.412113794004018
342,342,-4.35640238224138,-0.0263457313709044,0.914078974828664,0.105922807387281,0.0690368733084723,-0.0223726044842068,-0.143709945819923,-0.602492664792811,0.305086763686449
343,343,-4.35589814254514,-0.0258061736036374,0.914208402110887,0.0989295919878073,0.061949716156647,-0.0217795199936654,0.358568506170876,-0.789147934861395,0.165643244303577
344,344,-4.35545629686213,-0.0253209479171482,0.914415421008395,0.0889484816577644,0.0534475477680183,-0.0206437329316136,0.626812287852631,-0.667174266020374,0.119002211885838
345,345,-4.35505193968332,-0.024889199026576,0.914728516919624,0.0782840021501699,0.0471322749518145,-0.0185058009513354,0.583830596625339,-0.651948689591648,-0.00348850184010017
346,346,-4.35468121843178,-0.0245217936564873,0.91516313287863,0.0676795189461774,0.0431327976642747,-0.0141624621899523,0.36874408339203,-0.558502426220911,0.000687033647336913
347,347,-4.35436125988698,-0.0242218116056204,0.915694927701341,0.0590106711236036,0.0408338698561891,-0.00664157228674759,-0.0333707167781212,-0.5687408456434,0.133517991897714
348,348,-4.35409777916839,-0.0239781128841296,0.91628967352718,0.0525560136002467,0.0400829888291379,0.00312426077959193,-0.290669886125037,-0.774404693212774,0.457665564517595
349,349,-4.35389592404793,-0.0237791646722908,0.916913637417182,0.046842962318785,0.0379354498353461,0.0136362314572433,-0.493329900838258,-1.05974024017666,0.60003580453432
350,350,-4.35376029199802,-0.0236131145354912,0.917533590931951,0.0410161972906278,0.0328360713668196,0.0226893398705911,-0.384763902557813,-1.31226416447182,0.780929202404096
351,351,-4.35370156394668,-0.0234899401404155,0.91817493626004,0.0335942623039771,0.0214992842457,0.0312311700248763,-0.223485356573262,-1.3700752663817,0.82143606232909
352,352,-4.35371538261246,-0.0234192638330393,0.918857676031445,0.0241805933688428,0.00373492880897957,0.0414372330144603,-0.0148971461011839,-1.18516488103419,0.63459165591536
353,353,-4.3537834518544,-0.0233871420553029,0.919540496072866,0.0138860356577128,-0.0156441381757498,0.0518061877471028,0.178526544794578,-1.0832525231594,0.26709093161082
354,354,-4.35388769126677,-0.023377936919677,0.920181390283367,0.0047777277189403,-0.0319414810480457,0.0601739604272207,0.271987576309404,-0.965899932571455,-0.143083075454823
355,355,-4.35401031437186,-0.0233746287789815,0.920737672461079,-0.000960248890932037,-0.0409443537475787,0.0639904228693673,0.334390217502191,-0.93318699118559,-0.429028612343713
356,356,-4.35416582098583,-0.0233744196457941,0.921224757054952,-0.0019376671057228,-0.0422589640866408,0.0626052322279918,0.441274745844337,-0.774697517572797,-0.614224839406836
357,357,-4.35436546283206,-0.0233866805627071,0.921668886898052,-0.000537895260488129,-0.0402339388078694,0.0568831022227095,0.562303995351919,-0.520975099895471,-0.84423770129392
358,358,-4.35458671589634,-0.0234120529987001,0.922043049960278,0.00136981280151173,-0.0365115831579593,0.047918555231132,0.683169720230648,-0.460577227754774,-1.02817068662505
359,359,-4.3548069982392,-0.023451483148163,0.922320131029872,0.00288953965347772,-0.0318675524036775,0.0376841047760153,0.686135127973392,-0.439887364855705,-1.17238585764173
360,360,-4.3550036885511,-0.0235062721608182,0.922473150861975,0.00305043772809599,-0.0282752691362291,0.0276611438780838,0.636647583645218,-0.44806761429559,-1.22294495069671
361,361,-4.35520237930512,-0.0235288094144714,0.922496393553412,0.00151134034644066,-0.0260308691393129,0.0175055304327101,0.415222795565152,-0.416076630149448,-1.29363556284117
362,362,-4.35541823669528,-0.0235186828692526,0.922407369210939,-0.00200201725024759,-0.0243830001120036,0.00609944182088241,0.300911609042751,-0.414360236749033,-1.28464205946595
363,363,-4.35561314486854,-0.023548496338269,0.922214608675184,-0.00664562877603809,-0.0238813882637426,-0.00596888154104577,0.294733564384106,-0.464941930951528,-1.20811341039348
364,364,-4.3557492239178,-0.0236908495577941,0.921927255365991,-0.010137582355838,-0.0248419162669289,-0.018001343653236,0.248439677099038,-0.527937245749654,-1.18370643317593
365,365,-4.35578882568236,-0.024017861266958,0.921555275936671,-0.0119509734473171,-0.0286008374452703,-0.0292916380578048,0.319024654659161,-0.635198891630887,-1.08708364005004
366,366,-4.35571703713748,-0.024530974700012,0.921094440801845,-0.00999830892759693,-0.036317814602266,-0.0399116894041508,0.342028122985344,-0.6262145924424,-1.0138519513783
367,367,-4.35556059010534,-0.0251827297740307,0.920543488498579,-0.00536000743604174,-0.0470138311185607,-0.050013492347428,0.397375668587384,-0.555282012198018,-0.969179252151745
368,368,-4.35534427361082,-0.0259708802126604,0.919917087308608,0.000231525267821306,-0.0584145184103399,-0.0590456805685859,0.431056380314506,-0.480018136427248,-0.917979126227498
369,369,-4.35509254403954,-0.0268928317906463,0.919228632511564,0.0051093937093425,-0.0695540608814759,-0.066383985000896,0.426998315079489,-0.452971503567697,-0.804060315123622
370,370,-4.35482947815991,-0.0279457576924374,0.918489841362177,0.00772174884543288,-0.079255484112269,-0.0713373833355334,0.351501200519387,-0.434320957939329,-0.679435200475145
371,371,-4.35448182418457,-0.0292174989533688,0.917650960215413,0.00854201649136915,-0.0912741558476735,-0.0741513327896481,0.36606648495645,-0.403837933406097,-0.593708354961389
372,372,-4.35403550808987,-0.0307093962858404,0.916711848620745,0.0104097831751405,-0.1060709418714,-0.0747369817042106,0.046611394366777,-0.242592242330809,-0.281201560426696
373,373,-4.35360153357392,-0.0322882630515717,0.915753910536405,0.0104251387758056,-0.121823571063033,-0.0680446915428451,-0.841980914792831,-0.0239814818097341,0.537902631444743
374,374,-4.35328875926775,-0.0338201123925869,0.914853238505198,0.00535853600159271,-0.128927443711975,-0.0602182513763758,-0.579910828098964,0.056179973491447,-0.437478314947142
375,375,-4.35320431564097,-0.0351700032422444,0.91408056201902,0.00340980899982992,-0.126189033344449,-0.0556197741567959,0.0402528582817439,-0.520483069785115,1.93773606508268
376,376,-4.35338361084111,-0.0363419153638623,0.913398846373704,0.00583228174017771,-0.118703286069267,-0.0463231116012821,0.181439551104363,-0.251447466073022,1.28926021428845
377,377,-4.35375261979602,-0.0374207160428979,0.912757967258793,0.00101632517794724,-0.103293224413159,-0.0367537879217429,0.614235958358893,0.426757614427995,1.55501759234902
378,378,-4.35425414544659,-0.038395130739814,0.912204849926143,-0.0130911152070278,-0.0851126664997741,-0.0239271472171944,0.337710726278316,0.54137123838591,0.900369631960896
379,379,-4.35483145291539,-0.0392582191034376,0.911785376901245,-0.0258558590955869,-0.0593595379041805,-0.0113597239868713,-0.242386949426196,-0.297057124477354,0.820376089490875
380,380,-4.35542812949856,-0.0400071052771124,0.911544461701612,-0.0310129461431515,-0.0402907898708778,0.000246966924644823,-0.773876738715533,-0.408952456314736,0.797719438527582
381,381,-4.35610472783654,-0.0405520698663003,0.911517768410009,-0.0269966314533434,-0.0315095457380657,0.0118818661258082,-1.20755145388365,-0.45320710808937,0.677044064779844
382,382,-4.35689919306375,-0.0408998839411717,0.911671755489587,-0.0207959305007108,-0.030001501780926,0.0232364320651871,-1.1707318131853,-0.127834871835173,1.00813032883571
383,383,-4.35772156241711,-0.0411940111370074,0.911947702778384,-0.0140169858523154,-0.0304690271238874,0.0352920815463239,-0.676565314966841,0.212421230736181,1.70627230246429
384,384,-4.35848169686069,-0.0415768992768837,0.912287867457201,-0.0084022117053602,-0.0358173694041348,0.0447255973216968,-0.529582472133061,0.555044657653579,1.54316307590411
385,385,-4.3590892290719,-0.0421903042615898,0.912635381018473,-0.0130612688955287,-0.0578424821459171,0.0501096198683822,-0.248049781803705,0.910406649388529,1.31753995606283
386,386,-4.35946644951922,-0.043141220671862,0.913034692298503,-0.0185974454633521,-0.0841850893573167,0.0510816623538363,-0.555256078339289,0.683382075180406,0.771700991976768
387,387,-4.35967422520133,-0.044337373966878,0.913524157656973,-0.0259549268897254,-0.112350212969,0.0481373366203013,-0.792971693419663,0.406067861737182,0.210198429428506
388,388,-4.35982961577755,-0.0456199557620166,0.914039113762577,-0.0321127861494089,-0.13499001543333,0.0432545771877135,-0.942959344377213,0.20627652751711,-0.357407530448433
389,389,-4.36004940298441,-0.0468287522828127,0.914515997760413,-0.033435078958231,-0.145463322436456,0.0380503857300124,-1.05847537749608,-0.113458950995632,-0.771276089636221
390,390,-4.36045018935214,-0.0478022079129598,0.914892325278358,-0.0326714622622218,-0.144638047563668,0.0339480938676469,-0.677654034176554,-0.00118903540711281,-0.86675237255251
391,391,-4.36112863624892,-0.0485032529527906,0.915134785893742,-0.032139559906344,-0.131100304847136,0.0293222617124034,-0.162943154840352,0.0918672413451133,-0.699322432573712
392,392,-4.36200816421089,-0.0490380258117921,0.915292317869626,-0.0359728962752874,-0.115386282080614,0.023291981048697,0.465362568484578,0.321865585453562,-0.419251430418928
393,393,-4.36294517320944,-0.0494591645926212,0.915423438358374,-0.0430036781282382,-0.101049710687633,0.0174294119237156,0.804418446931267,0.60521475379137,-0.293725642392743
394,394,-4.36379530726212,-0.0498200891177276,0.915581780783004,-0.0471534517846002,-0.0848214501704747,0.0138617339996604,0.80228526891056,0.647341515443559,-0.371662420447205
395,395,-4.36441308796239,-0.0501749406505412,0.915815950703228,-0.0466631307653102,-0.0663341330958664,0.0139735615549598,0.661056644470445,0.168747086479585,-0.333765162590635
396,396,-4.36476770467169,-0.0504707776199557,0.916118603637719,-0.0433036115767417,-0.0487449470901016,0.018029420727094,0.778830338201756,0.034337397741025,0.151487938797411
397,397,-4.36495618519049,-0.0506737790443735,0.916453899581987,-0.0352193729527907,-0.0308613990389969,0.0267029926737195,0.837793454342963,0.244023390180886,0.417926655503738
398,398,-4.36502342606759,-0.0508648849593091,0.916824002666389,-0.0260762135744732,-0.0137922723618385,0.0373609676693899,0.726795663495438,-0.000817800013332691,0.32575948311781
399,399,-4.36501368999473,-0.0511219972530059,0.917230741127707,-0.0172885397629462,-0.000322692099177861,0.0459110352693393,0.763402052581844,0.320467478848791,0.747078384652664
400,400,-4.36497065065501,-0.0515202604224424,0.917675649023667,-0.00971825562366985,0.0101783470732704,0.0531972881660389,0.364014951024991,0.412632270225492,0.820129194052818
401,401,-4.36484562162051,-0.052146613823899,0.918178802496739,-0.00242643575684898,0.0147275811379353,0.0598570231221679,0.233743933178467,0.671562254681228,0.635129536885554
402,402,-4.36460773797325,-0.0529454279578409,0.91873597601267,0.00382993310063845,0.0137091841919041,0.0660450660466321,0.0412497851031111,0.604332958174518,0.377262520147077
403,403,-4.36432743259291,-0.0537784609686621,0.9193121389478,0.0093643356721144,0.00923918422875891,0.0701273030845397,-0.139679635789473,0.799111994796335,0.111563170443039
404,404,-4.36407534230824,-0.0545100727380388,0.919872319748875,0.0149351432711656,0.00636790106217505,0.072120419127666,-0.0947376859706144,0.781708265837932,0.142909394354972
405,405,-4.36392224846524,-0.0550067754654213,0.920381609440687,0.0203175754423514,0.0057371140657299,0.0722028823873571,-0.156389751947842,0.558886316548829,-0.123389999981266
406,406,-4.3638998135634,-0.0552114442013651,0.920858356657322,0.0232854160989256,0.00667805708737929,0.0693053063888332,-0.105421227937675,0.47161773284745,-0.365685047066812
407,407,-4.36396052442548,-0.0552147575467742,0.921324115766473,0.0231240410365221,0.00921495383465312,0.0634066646388264,0.0888101240999951,0.407794349097424,-0.415973415955375
408,408,-4.36405671034379,-0.0551062209566595,0.921748286803216,0.0219755406974585,0.0135888515699881,0.0557043691810033,0.212271991782474,0.319575327050798,-0.652139722578256
409,409,-4.36414054895139,-0.0549751671034504,0.92209963019934,0.0205398415183432,0.0174465007397215,0.0463486130006963,0.323461918151778,0.165856999008676,-0.867193609565683
410,410,-4.36416394765627,-0.0549106940187057,0.922346533166033,0.019825069207497,0.0205709528261667,0.0358359772746898,0.37560182910003,0.0961351676531411,-1.04806892158798
411,411,-4.3641492699873,-0.0549422018764094,0.922489382987995,0.0210299217748386,0.0220174313543617,0.0238822102203359,0.394649210315227,0.0145475251278802,-1.16832877166351
412,412,-4.36412818220144,-0.0550105848945306,0.922547641410259,0.0232401620531812,0.0213810513855453,0.0100186492897163,0.456066698445874,-0.0379364509013337,-1.26255869088423
413,413,-4.36406632100738,-0.055071616223859,0.922518472276886,0.0260581128556842,0.0193654844780497,-0.00447992892860498,0.532627865977923,0.0583838397490608,-1.29844947310759
414,414,-4.36392955272382,-0.0550808162638847,0.922399373800195,0.0299282189291723,0.0171833023502509,-0.0184446320128474,0.540923445293496,0.112398315581673,-1.28454734777349
415,415,-4.36368414793959,-0.0549938150325369,0.922188320991796,0.0337559893787572,0.016617927637882,-0.0308115945199362,0.524741504878881,0.184733792900842,-1.17916166723204
416,416,-4.3633157054821,-0.0548218925612381,0.921875061384475,0.0380934310210759,0.0172262598914639,-0.0415781988982479,0.441705326855875,0.231963450568247,-1.04368197685383
417,417,-4.36284750689088,-0.054594436436579,0.921463010521906,0.0439481809764122,0.0189976359290777,-0.051074625682805,0.281763872780592,0.248409830373234,-0.94679963446839
418,418,-4.36230271987597,-0.0542946552327507,0.920971428063004,0.0499970791715181,0.0223805739385515,-0.0594364811193326,0.117358548341095,0.231514364293365,-0.89814972654095
419,419,-4.3617044440749,-0.0539057738937022,0.920419938066977,0.0549053246687989,0.0267125681990119,-0.0667937848567779,-0.00570261019831007,0.180953157416221,-0.789598468598885
420,420,-4.36107560825454,-0.0534109650572712,0.919828483772195,0.0563854545669436,0.030552748436722,-0.0731100206319113,-0.005117877282198,0.191881020853801,-0.619558840160921
421,421,-4.36036606833385,-0.0527909700833573,0.919188348781752,0.0541361599697895,0.034722443260077,-0.0780134216195207,0.0736858465585436,0.121630447666953,-0.435583552054497
422,422,-4.35956177344545,-0.0520572729470757,0.918494046733745,0.0491521734713332,0.039162935590781,-0.0810027653768012,0.178994809285987,0.152286529770519,-0.297742851485211
423,423,-4.35873949686159,-0.0512398611999114,0.917768638871976,0.0445070881548009,0.0450293377254675,-0.0823730323883029,0.189265807196045,0.0638016938543176,-0.238204194361661
424,424,-4.35797589586046,-0.0503698693070997,0.917031811009499,0.0415631833710659,0.0519626664924966,-0.0829417390610426,0.236235614621105,0.0673936581669899,-0.253396997395078
425,425,-4.35734753341261,-0.0494795027519516,0.916299333299848,0.0414477350905902,0.0586727382306904,-0.0834471406977493,0.243268028247911,0.159304126902632,-0.3182901372478
426,426,-4.35691491160788,-0.0485367631535476,0.91550788994858,0.0432009756632842,0.0684634021125942,-0.0867159392938105,0.264085036003043,0.321483544520376,-0.407382066804541
427,427,-4.35662830445823,-0.0475246489861959,0.914649770968409,0.0430017968838892,0.0810353137005439,-0.092954156372138,0.383212396730766,0.404058631654374,-0.345300060507134
428,428,-4.35639801384328,-0.0464970789728351,0.913818421959603,0.0378718363396792,0.0932403178590756,-0.100354553324059,0.169106824336794,0.464140910725725,0.458050857552113
429,429,-4.35613317611605,-0.04550579495825,0.913103480916503,0.0280855899678309,0.10526180283609,-0.0932410558709171,-0.892153791283639,0.920327644163474,0.80476217236579
430,430,-4.35574184464231,-0.0446002794660653,0.91259102789938,0.0160918254420661,0.103403586029536,-0.0808667996182073,-0.339365863602523,0.640368370284738,-0.368678860081675
431,431,-4.35519412149081,-0.0437629309926945,0.912305701396378,0.00988738508868428,0.0967118573300495,-0.0702255543051073,1.07348425716543,0.232062681658379,3.58345777629403
432,432,-4.35455002481207,-0.0429611361512393,0.912184499188636,0.025239066390047,0.089339174551129,-0.0367278381896117,0.508927707927155,-0.40598535679626,2.40854772265638
433,433,-4.35385148707535,-0.0422179663391073,0.912179961968622,0.0373117810515718,0.0585879133574701,-0.00441543628333716,-0.256790738956657,-0.617731676611069,2.49179912769853
434,434,-4.35314024111406,-0.0415538069687521,0.912244733502427,0.0412365798744018,0.0301007587421446,0.0226433361855468,-0.306718349355412,-0.473687313939251,2.65648291958323
435,435,-4.35245803941645,-0.0409870733423316,0.912331604659618,0.0463744589759964,0.0156204518263137,0.0425884896761541,-0.231628993463155,-0.202091752275493,1.14514015196472
436,436,-4.3518215581216,-0.0405923545071142,0.912462312307344,0.0519381887666658,0.0104354455621471,0.0464364048048224,-0.388440961676233,-0.244032633056461,0.383351801181611
437,437,-4.35120181914761,-0.0403522835732403,0.912664738070453,0.0605336413579031,0.0120094207455085,0.0424440775265665,-1.03240394712953,0.0964646622251925,0.0559270700752
438,438,-4.3505724512243,-0.0401482306968608,0.912902162282975,0.070009884695767,0.0196409851211781,0.0350592772617721,-0.955867981099555,0.545937491620462,-0.544781472878282
439,439,-4.34990743611718,-0.0398632219721283,0.913138997585438,0.0778664893019766,0.0286386021901839,0.0249827883400556,-0.926250477575685,0.639411961431323,-0.439991504876438
440,440,-4.34918115636182,-0.0393814518729698,0.913340633201566,0.0837901275640936,0.0392433619991621,0.0195422219140102,-0.836042678175963,0.919087571362318,-0.27408222149479
441,441,-4.34836935980287,-0.0386763983563232,0.913494103786084,0.0852569121063726,0.0518025213352438,0.0178981091561207,-0.706168071676334,1.03460215307447,-0.042878904374078
442,442,-4.34748998634878,-0.0378279335737486,0.913623309601391,0.082537897990112,0.0648760475934499,0.0159371631961674,-0.662507547325047,1.00812298632811,0.414223873811335
443,443,-4.34658083727594,-0.0368798007260371,0.913750155274394,0.0785609525096126,0.0828633468976332,0.0154306836266352,-0.627081889884769,0.639696281758307,0.393260758410724
444,444,-4.34567912525539,-0.035874231519216,0.913897234891674,0.0740003465622484,0.0962270812239867,0.0143764695509875,-0.442808363707938,0.405008060947058,0.214867147943654
445,445,-4.34482116603252,-0.0348514029909252,0.914087885318206,0.0715202623254869,0.102950098290062,0.0115435831554421,-0.347194365522705,0.0768099640985268,0.0896246035148953
446,446,-4.34398491102873,-0.0337653294844774,0.914345056598592,0.0745701901831883,0.104181132951883,0.00660408212797352,-0.476018199095355,-0.184363224531281,-0.24014425375096
447,447,-4.34314510560114,-0.0325858271024973,0.914658417819839,0.0827197913067493,0.102438742903722,-0.000512452885200715,-0.505512872234177,-0.473045809484175,-0.48984873914974
448,448,-4.34233297407954,-0.031375639874255,0.915000598547414,0.0917103136084348,0.0985172204271769,-0.0074065979205695,-0.311437209551651,-0.517636868324143,-0.600497500627326
449,449,-4.34158056561143,-0.0301993679326797,0.915341958525327,0.0985572017883541,0.0941306140227372,-0.0129129374833556,-0.112015634073751,-0.43394561500234,-0.383820647829195
450,450,-4.34092081666939,-0.0291239921140567,0.915650358048789,0.0998794279170172,0.0875024814667636,-0.0155048217810599,0.0719773960318732,-0.362039933659402,-0.027810905707822
451,451,-4.34035645788278,-0.0281444490471392,0.915878065188819,0.0968422779696601,0.0810439860000831,-0.0145205105817249,0.109462080297837,-0.162198254493796,0.159804716824178
452,452,-4.33986630682378,-0.0272143377967442,0.916048174520293,0.090483040920911,0.0776138087977808,-0.011731354068289,0.0496498308434307,-0.16435975176956,0.347333121785087
453,453,-4.33944873765693,-0.0263430267732984,0.916230938250396,0.081322662120197,0.07651856821626,-0.00772982143111622,0.0680390864617368,-0.234568530959269,0.399300814776418
454,454,-4.33910272845906,-0.0255433313012875,0.916493852025084,0.0706221496112055,0.0742015097615195,-0.00279231744017053,-0.0356963109254316,-0.16704620067447,0.286779324274271
455,455,-4.33882729645414,-0.0248311385951959,0.916901978215405,0.0594280675514949,0.0716309543795673,0.00214449733808942,0.0489956559745367,-0.328469359506277,0.209413537793825
456,456,-4.33864088418381,-0.0242211575265599,0.917501029726233,0.0490531130229116,0.0680864415191009,0.0089950697514705,0.0876310042061257,-0.467544657420472,0.342386124993452
457,457,-4.33854544794358,-0.0237100692440591,0.918243603610082,0.039158496988483,0.0630104380847262,0.0183515549521871,0.101481114582279,-0.596214458451357,0.274086177573937
458,458,-4.33851385749674,-0.0232855653076951,0.919054249149608,0.0299683636817141,0.0570510277393756,0.0277338378845603,0.282586045173155,-0.816483550194306,0.258402814189986
459,459,-4.33851804779712,-0.0229320220123188,0.919857958336109,0.02153296122522,0.0491407892045215,0.0356641282624688,0.463653449090117,-0.911595858737304,0.37959208792914
460,460,-4.33852938048686,-0.0226310908194617,0.920579971670692,0.0149982437119029,0.0393614373137061,0.0415906295439502,0.531063849691784,-0.875993215826639,0.328557380252794
461,461,-4.33856467630284,-0.0224053613048999,0.921234699556542,0.00898071590477214,0.0274133687144407,0.0459239029174583,0.55235086133751,-0.82689095457398,0.145561794335281
462,462,-4.33864131776597,-0.0222652372041326,0.92187090551641,0.00343466697774047,0.0138907352220448,0.0494319562164693,0.488232288998792,-0.798131172533783,-0.115679668304664
463,463,-4.33873158452562,-0.0221717075369581,0.922464838865146,-0.000349986601506929,0.00140997960847106,0.051939917902678,0.449772378862387,-0.835286767028263,-0.360628683697491
464,464,-4.33880800490756,-0.0220851246713834,0.92299189030801,-0.00236798613905087,-0.0113028561345721,0.0529907908114179,0.406024117395864,-0.565840615535645,-0.519465762285529
465,465,-4.3388431842525,-0.0219654663728303,0.923426789710278,-0.00371017830153032,-0.0231712167335745,0.0514530465018201,0.499491123012907,-0.233306008105364,-0.743003380400466
466,466,-4.33883285952646,-0.021787696334382,0.923771273904123,-0.00275987172353588,-0.0302229838073149,0.0467965380704737,0.579128161220797,-0.267629976961449,-0.853937798920112
467,467,-4.33879479915923,-0.0215764916950412,0.924040283077611,0.000596478652181415,-0.0320446834360627,0.0394663818014168,0.574831456053722,-0.369435850138194,-0.940107781540286
468,468,-4.338734660426,-0.0213671205182274,0.924228111255079,0.00579054071333802,-0.0295699931128357,0.0306489657664279,0.4617301459826,-0.398867543913962,-0.999061811482935
469,469,-4.33865822741778,-0.0211956380667008,0.924329166793703,0.0110549985481569,-0.0267997275803508,0.0212858860213729,0.432151174663364,-0.384720960453628,-0.977063702581223
470,470,-4.33857141757421,-0.0210984433691143,0.924338140624422,0.0156684574801806,-0.025678625128489,0.0121269623004291,0.296260444196754,-0.376195915236628,-1.0027851273553
471,471,-4.33849187819324,-0.0210535941220189,0.924248938655127,0.0182363417979478,-0.0263445083216337,0.00304908025474707,0.251125613700329,-0.391586477108692,-1.004117746087
472,472,-4.33841591889155,-0.0210376390003597,0.924065638616249,0.0196229364897106,-0.0263631843611193,-0.0065629937363158,0.240819882458743,-0.514229499749233,-1.00904361066809
473,473,-4.33831760032488,-0.0210845158604253,0.923798861662395,0.0201783498516186,-0.0269865297005866,-0.016353389539479,0.25052027924746,-0.567275452234951,-0.959249955570616
474,474,-4.33817106566828,-0.0212279188577317,0.923459659923751,0.0203864783529478,-0.0290506303583358,-0.0260002194735591,0.219081082346574,-0.53694988302851,-0.945676555843445
475,475,-4.33795049260578,-0.0215011988618104,0.923059542189402,0.0203071083368372,-0.0328826224692468,-0.0351319294420447,0.236497645664486,-0.548669167246628,-0.867150987765914
476,476,-4.33762184954182,-0.0218931528205018,0.922595272449815,0.021275012336141,-0.039058792387754,-0.0437648276881831,0.219469949696062,-0.589476473707079,-0.779017323254277
477,477,-4.33720340038091,-0.022381143042606,0.922064665339347,0.0226131621855583,-0.0474351182999465,-0.0517951463854382,0.221726400121865,-0.503667595735946,-0.689858190308966
478,478,-4.33674742641438,-0.0229806968801659,0.921479923202707,0.0253055909879777,-0.0562501165042768,-0.0586063531939255,0.146080432260678,-0.488623407814012,-0.626929269626319
479,479,-4.33630568469402,-0.0237068746693274,0.920850938863837,0.0277665196351557,-0.0646735748073074,-0.0639040468830546,0.0758005754141233,-0.365730116281005,-0.57501000523904
480,480,-4.33592939625601,-0.0245744010570262,0.920184829647241,0.0293205902530499,-0.0726403889185355,-0.0675252409989099,0.123876373938353,-0.200165892738565,-0.519156163577527
481,481,-4.33561068066822,-0.0256550824133018,0.919431346956427,0.0305125856286616,-0.0811082116623402,-0.0708541777208248,0.137616379468016,-0.0851454238696341,-0.405861749206856
482,482,-4.3353148860184,-0.0269360128064265,0.918587980088154,0.0302757356598185,-0.0919609539670501,-0.0740042102484405,0.197551124768087,-0.00678526144180145,-0.285693086615687
483,483,-4.33505283130584,-0.0283065421955445,0.917729661035882,0.0268413509746192,-0.10239162638797,-0.0757346487913105,-0.216975834390842,0.120860228264184,0.598116715964859
484,484,-4.33483567046494,-0.0296585328816048,0.916929027015387,0.0177161055959726,-0.110252850766001,-0.0684111845853124,-0.610040815683884,-0.0912986979748442,-0.110940466698997
485,485,-4.33467500025933,-0.0308861420824413,0.916256472812736,0.00280318950965369,-0.108015203318018,-0.0631951911218356,0.167066082064118,-0.219176688849344,0.512540219780029
486,486,-4.33453764870441,-0.0320176381429871,0.915704611466759,0.00101693659359202,-0.0994765227353294,-0.0498577636758786,0.202502551157119,-0.782379842392245,1.96158371441536
487,487,-4.33441621882923,-0.0331260893778049,0.915223204556267,0.00485140083100638,-0.0873316967508544,-0.0310417428192994,0.560370987737191,-0.459501684076521,1.83010458863744
488,488,-4.33436111319778,-0.0341740496582398,0.914817130991853,0.00600800697862048,-0.0745714281185131,-0.0103021818696549,0.0964016493349035,-0.189695344950245,2.13931056797468
489,489,-4.33442252606059,-0.0351238608887219,0.914491630841716,0.00230254778203268,-0.0632963974793647,0.0101667895638651,-0.140300961189625,-0.495329909929733,1.36447671199206
490,490,-4.33465045792843,-0.0359377446035758,0.914252311473705,-0.00255792223501544,-0.0525112589725674,0.0235020162771664,-0.268565810511744,-0.692314873273805,0.979190168708976
491,491,-4.33514119520706,-0.0365628319476221,0.914112242002707,-0.00719461079340526,-0.0475328614349864,0.0293576643928189,-0.268472723324999,-0.540768212049785,0.648099960558367
492,492,-4.33586127303318,-0.0370260705950997,0.914065883767435,-0.0128955994112302,-0.051075944287894,0.0300600174484335,-0.328307612942689,-0.440864070424072,0.272311186477086
493,493,-4.33666571797499,-0.0374084243761263,0.91409152887875,-0.0188022773667394,-0.060300000237068,0.0276789555774786,-0.596464975696406,-0.353927322887294,-0.0585705488385478
494,494,-4.3374093438514,-0.0377896972839311,0.914167850079164,-0.0246102567840047,-0.0686900890811914,0.0253471998079634,-0.469104585924558,-0.280538010689778,0.000115110739751603
495,495,-4.33794686195801,-0.038248634910138,0.914273840172871,-0.0290041070950363,-0.0738296224406255,0.0236861451801297,-0.17249804511755,-0.18433479401484,0.195160624804396
496,496,-4.33821960861096,-0.0387245564532518,0.914431005476194,-0.0319689248567079,-0.0787859300778934,0.0223221607952717,-0.0926290511702492,-0.177394021060827,0.167254354222514
497,497,-4.33832388250967,-0.0391635244250042,0.914652629537305,-0.0328493104995723,-0.0830821909134598,0.0210758626642334,-0.352185747040928,-0.153027652760612,-0.0794021636978494
498,498,-4.33834701230002,-0.0396537964513555,0.914906086714745,-0.0321767688477258,-0.0855426239620585,0.0193126518519764,-0.60418143634176,-0.100610448740489,-0.168762341212541
499,499,-4.33837650620131,-0.0402838269483708,0.915159522620524,-0.0312174673526593,-0.0862827227298771,0.0172103747446153,-0.663681409458305,0.0306856552339543,-0.116365164967565
500,500,-4.33849999580611,-0.0411423876617139,0.915382094009471,-0.0318473537342805,-0.0900006818006169,0.0153693258323421,-0.330326506503085,0.0626100227600873,0.0384089853923117
501,501,-4.33874900609563,-0.0423513576125205,0.915585392717152,-0.0337416446576856,-0.0946348018082774,0.0136304579138137,-0.338661843056226,0.12172251449059,0.114658040747031
502,502,-4.33906529776907,-0.0438512326883305,0.91579274159069,-0.0344521742926305,-0.100790766973798,0.0115834040769896,-0.0342329881337035,0.0540599918035246,0.0493077615111379
503,503,-4.33940205235656,-0.045459529188011,0.915991841458862,-0.0335918255994021,-0.110141361343901,0.0100870776542715,0.377784200224052,-0.0337707308967919,-0.206352840784621
504,504,-4.33971258306587,-0.0469942428271511,0.91617019467746,-0.0306268904544369,-0.11838988662808,0.00933704331577602,0.605624566396383,-0.0466221015082509,-0.513132705470409
505,505,-4.33995035348252,-0.0482737692041624,0.916314972688945,-0.0255099862239413,-0.121029971357493,0.00894059513115585,0.75739421258062,-0.0695430116320047,-0.524951531402704
506,506,-4.34015377959912,-0.0492391745744689,0.916399046207044,-0.0173769179235856,-0.121044925681548,0.00828893209997926,0.857843241312997,0.155937822686849,-0.44949421230572
507,507,-4.34035523386982,-0.0500140283252133,0.916436021278513,-0.006471853322965,-0.115692953692192,0.00680139981650614,0.848097176325428,0.147443987460443,-0.350372038280209
508,508,-4.34049886672862,-0.0506896727301208,0.916471934615776,0.00515002981507996,-0.106986910498774,0.00598865254087108,0.774526589748223,0.194002455437811,-0.175602339159087
509,509,-4.34052806990963,-0.0513557897663411,0.916549885177419,0.0140786469363999,-0.095048150152589,0.00690887577596412,0.718500886327664,0.211567780295642,0.211464258134355
510,510,-4.34038532398495,-0.0521004467908671,0.916709937799792,0.0191800134672002,-0.0806355516896523,0.01140328350359,0.432525801906573,0.164244721406449,0.592880936720445
511,511,-4.34000187738009,-0.0529590050346997,0.916953070070676,0.0200089738357054,-0.0658011016078703,0.0217201673588419,0.0861818260879,0.243153241630003,0.749798409404612
512,512,-4.33941599494218,-0.0538719851015698,0.917251208667511,0.0171967519400491,-0.0509159672918531,0.0353741598530815,-0.017235911000107,0.421458688715809,0.993380993196197
513,513,-4.33872983303963,-0.0547842391437288,0.917598393255246,0.0122354378946298,-0.0391815775584053,0.0490003397688515,-0.109750355366834,0.804152813697194,1.29450360916839
514,514,-4.33804518820758,-0.0556404478410632,0.917988144015333,0.00896832376147168,-0.0299102953575769,0.0618443719094067,-0.409080166252953,1.0861353275129,1.1685322587182
515,515,-4.33746355404863,-0.0563849881164085,0.918413486930254,0.00794512529390197,-0.023556829731928,0.0709684714592593,-0.559911632143503,1.15043935910209,0.830812890717011
516,516,-4.33697158399363,-0.0570212640368084,0.918902597419002,0.00726641651735307,-0.0182917065664033,0.0754210672724092,-0.555298007307338,0.9345966298654,0.401965638722564
517,517,-4.33650090507864,-0.0575854904802601,0.919458877581009,0.00602094859888651,-0.0137300811698205,0.0760886219705839,-0.371700295783301,1.10861161471673,0.169915297974661
518,518,-4.33607034895888,-0.0580712269539436,0.920036765158543,0.00505030087845398,-0.0092651397313092,0.07415136588418,-0.108061069769292,1.01267530732583,-0.133630114708503
519,519,-4.33569877529724,-0.0584723563875565,0.920589202239956,0.00522165351065699,-0.00556278731811659,0.0702611140713566,0.237431458330865,0.889464495430743,-0.470237005058037
520,520,-4.33540509613619,-0.0587830812683704,0.921067849060945,0.00766364818010979,-0.0022039995641365,0.0650783321449139,0.447561238632673,0.847447044914255,-0.654917688863446
521,521,-4.33523644689462,-0.0589943801606759,0.921486574090775,0.0120889958247195,0.00208875882510567,0.0580916621533875,0.494900498592877,0.646568974584701,-0.774881148468523
522,522,-4.33518005593522,-0.0591101391480457,0.921874313026435,0.0179420768188632,0.00787700863955537,0.0488872747129211,0.568715702156758,0.385001731693711,-0.885704430472765
523,523,-4.33516477438353,-0.0591438862009946,0.922204213800385,0.0238390407413926,0.0140610461047992,0.0378971244267369,0.4845267768872,0.20988334045146,-1.00307116541263
524,524,-4.33511912458647,-0.0591087901310979,0.922449155407952,0.0286822084177743,0.0185542771929953,0.0256135530450467,0.453964926932053,0.219725937125466,-1.12177248447671
525,525,-4.33497135750049,-0.0590176784829095,0.922582145399331,0.0325203095712161,0.0225868073938101,0.0127827585441568,0.421761016582774,0.234740035382014,-1.23014112060572
526,526,-4.33474062307965,-0.058878730252197,0.92260366302521,0.0361515248134137,0.0269006588063911,-0.00107314181540872,0.371497716614618,0.163347263217182,-1.36781226776935
527,527,-4.33447440718619,-0.0586824389313497,0.922530803887192,0.0398764974851994,0.0305848237906972,-0.016069592487486,0.330417882237365,0.182255095298771,-1.48466229171614
528,528,-4.33414348218878,-0.0584150631619021,0.922362393441219,0.0447480493239255,0.0340704433659132,-0.0308959375402848,0.261909109643048,0.269352129787956,-1.50313547836446
529,529,-4.33371885500124,-0.0580633346858407,0.92209786176897,0.0496882758380168,0.0374588820098997,-0.044800580415359,0.253284764630832,0.33372558111128,-1.4278886748158
530,530,-4.33317179227894,-0.0576147579184148,0.921737211440554,0.0541943839202048,0.0402822553082298,-0.0569410087686019,0.340878647241475,0.397097186302497,-1.28946772289173
531,531,-4.33245159888396,-0.0570809230298045,0.921270810726111,0.0596182673674567,0.0438396703235446,-0.0668876528011433,0.407798512210392,0.337814839874336,-1.10307102630689
532,532,-4.33157879821194,-0.0564717463740953,0.920704177748628,0.0657209014094328,0.0474384294803176,-0.0749540230559865,0.430944904790141,0.307842097763363,-0.893571471583755
533,533,-4.3306312983412,-0.0557728024499502,0.920059815748851,0.071703014249896,0.0510744891167681,-0.0811454981262469,0.417204803327453,0.222050152641874,-0.701518434370226
534,534,-4.32968635611655,-0.0549691249762922,0.919358729012416,0.076134354475633,0.0551046307748698,-0.085476461231813,0.306565525438824,0.169069075386478,-0.580342481099409
535,535,-4.32882052453026,-0.0540449393920849,0.918619901135276,0.0779642069594832,0.0593879117287021,-0.0885887894322962,0.170540268059279,0.0234641373855912,-0.369940035568582
536,536,-4.32803010415187,-0.0529463835086041,0.91779743895617,0.0765383099298926,0.0648553653409532,-0.0911009945906421,0.0028873667317018,-0.0871201833102057,-0.232284102722229
537,537,-4.32726391056435,-0.0516858031300447,0.916884913782434,0.073347911701723,0.0716780488824033,-0.093110036977375,-0.205005111691096,-0.119983324628672,-0.169228370332178
538,538,-4.32652712131725,-0.0503453723558339,0.915956089609122,0.0682378510815271,0.0783426691601122,-0.0937394250482915,-0.149499539347907,-0.108483349022561,-0.0509610435310006
539,539,-4.32582530086822,-0.0490062320745426,0.915080521911137,0.0628219786324056,0.0835841183686664,-0.0917024720537622,-0.143030372802041,0.0121056665950662,0.0856928566039119
540,540,-4.32516427732064,-0.0477484304882945,0.91432361134342,0.0569069431108852,0.0856508926956752,-0.0856646008664202,-0.0157895560574329,0.0924704976213398,0.226617590848879
541,541,-4.32457101576867,-0.0464953059831802,0.913630368916609,0.0472587122842707,0.0886927018668897,-0.0744238010887919,-0.608366441978825,-0.0308864884110766,2.13808875303793
542,542,-4.32404275823066,-0.0451926659553799,0.912955188216749,0.0402179701752294,0.0902696552916971,-0.0431664789182295,-1.63529570239576,0.534427273630381,-0.979011919833377
543,543,-4.32354009265242,-0.0439535741345649,0.912373814044548,0.0261314635395811,0.0853209644604516,-0.0276407018731064,-0.000873537810219815,0.497412732322143,2.35613119208716
544,544,-4.32302250454235,-0.0428912710640889,0.911960271186245,0.0306891244814397,0.0830226721485845,-0.00813783565229469,0.224852806438573,0.10859644068509,3.60892406062865
545,545,-4.32244847124247,-0.0421192215304085,0.911786964976962,0.0441086801867159,0.0752630734179585,0.012029348008944,0.103250923979144,-0.560688602389513,2.71314299031127
546,546,-4.32183508400825,-0.0417670194867139,0.911924669122469,0.0550763777934817,0.0585417779816774,0.0233242801888465,-0.788491193162388,-0.892179177825323,2.44378420705208
547,547,-4.32120865022163,-0.0417593188111229,0.912320515032442,0.060972512293183,0.0352778843863692,0.0369510595471922,-0.355009308990393,-0.190222855773476,1.86544321745591
548,548,-4.32054096848868,-0.041901497806753,0.912860835844649,0.0662535420243138,0.0131411907202211,0.0501460816229452,-0.0156370424492733,0.143205329752863,0.786952582103506
549,549,-4.31980413281919,-0.0419979288093508,0.913432350433506,0.0715467148261996,-0.00388752486523773,0.0575034406529519,-0.589565826100216,0.134452454274921,0.576049946459656
550,550,-4.31897051649155,-0.0418521077263615,0.913922445477347,0.0764837119891455,-0.0130312371127666,0.0625825853107613,-1.13326330501157,0.59732596997409,0.204495829014048
551,551,-4.31796462486447,-0.0414524410326213,0.914346947950224,0.0791292142465081,-0.0118884940929592,0.0622774178988982,-1.47793510493529,1.01069093454941,0.0600416346165239
552,552,-4.31680430975486,-0.0409278526274115,0.914779601192344,0.0800540108020621,0.000818541058409253,0.0580834123952554,-1.3179014479206,0.727271489451088,0.224187709067322
553,553,-4.31560226206751,-0.0402926980649841,0.915196662442078,0.0825991078838,0.0184255195453334,0.0522442723286768,-1.22211659949577,0.840635006107465,-0.296327252724089
554,554,-4.31447131089777,-0.0395618703174208,0.915575898633027,0.0832939988730675,0.0318744007824526,0.0426806111925378,-0.890852178575717,1.00698559272716,-0.196024404375914
555,555,-4.31352428935371,-0.0387503506496564,0.915896677342985,0.0847752826363694,0.0412767663563923,0.0327908074916747,-0.694096890566956,0.710686940886255,-0.397454889215029
556,556,-4.31280561159711,-0.0378077359164721,0.916143010179039,0.0868713039501454,0.0493147537981234,0.0205703122351835,-0.416613595087266,0.519152250174097,-0.820329652537942
557,557,-4.31223935074265,-0.0367216932004599,0.916337064989983,0.0882503572589411,0.0573066110421322,0.00360965904651454,-0.154825380846046,0.267791010681401,-1.02677724079751
558,558,-4.31175851800441,-0.0355652098856581,0.916514354984449,0.0893529670677252,0.0639415591990154,-0.0132871402431318,-0.0287954181097855,0.172971704550546,-1.11364339095717
559,559,-4.3112972378373,-0.0344134706201499,0.91670610134,0.0915142558871115,0.0699421692250598,-0.0271076679731502,-0.0404212447986378,-0.0603083417279299,-1.10984148728506
560,560,-4.31079069866321,-0.0333442564825944,0.916938663571975,0.0912385955295509,0.0721775317177447,-0.0347222203615679,0.103370816330235,-0.246520467726842,-0.793528235385437
561,561,-4.31021485865891,-0.0323147700002377,0.917188651866096,0.0909473007624799,0.0743890738475968,-0.0355426164039312,0.172910281590913,-0.347141022449627,-0.370292831882207
562,562,-4.30961539402162,-0.0312739832761031,0.917440091894153,0.0917607646258542,0.0778059169442003,-0.032473563098289,0.236541781705081,-0.417632370802734,0.0651263669406353
563,563,-4.3090328050691,-0.0302905259203651,0.91772419570346,0.0908816663787123,0.0803746518696031,-0.0262799875000618,0.51471846125242,-0.435334967749711,0.479918503053474
564,564,-4.30850718193805,-0.0294348796238941,0.918068341026087,0.0868643947026751,0.0823786103099277,-0.0187545198899766,0.853577042015224,-0.644998681167317,0.700993385650297
565,565,-4.30807748561607,-0.0287792005168511,0.918496670584461,0.081274406930591,0.0839932757308,-0.0108256717130958,0.720711429757912,-1.01247121412415,0.789678955720184
566,566,-4.30773963708151,-0.0284011368774514,0.919038037452605,0.0752587751150927,0.0808004150857779,-0.000300455852682636,0.371343214171602,-1.11380709298911,0.630539419793031
567,567,-4.30746734633,-0.0282588242346728,0.919670892208415,0.0675454176163792,0.071184908594763,0.0125719743455696,0.218872143867636,-1.27022929209513,0.506873061029264
568,568,-4.30726442378306,-0.0282431031776436,0.920343070547007,0.0596863053009787,0.0563009806869918,0.025142614597526,0.0786768453191537,-1.36209757007862,0.466598677396058
569,569,-4.30713504987341,-0.0282412418292555,0.92100267447768,0.0525812270871661,0.0405076910462346,0.0356133205838911,0.108708832633464,-1.39432054577522,0.515935724628042
570,570,-4.3070841448979,-0.0281374264363657,0.921597591030825,0.0465907549700785,0.0240903436564618,0.0433135942210859,0.24010397090699,-0.858389242698345,0.29864140868466
571,571,-4.30716627399328,-0.0279017959628503,0.92214407971625,0.0395498799992292,0.0102522642887761,0.0477071671545861,0.428324509330005,-0.536030048099353,0.0691640703021988
572,572,-4.3073768802512,-0.0276081472550853,0.922675256994503,0.0316749412558805,-0.00103762625212478,0.0498800153569421,0.520323486341276,-0.499372894948963,-0.249385472659407
573,573,-4.30763250110383,-0.0272941635534579,0.923163576319827,0.0236590874879309,-0.0090321976998603,0.0496532047864804,0.625994663683382,-0.559332771716983,-0.509246308130687
574,574,-4.30784956886474,-0.0269978980824051,0.923580792499718,0.0173272140016167,-0.0155569707347638,0.0472017239128058,0.599597095211394,-0.571464418498718,-0.765487550643641
575,575,-4.30794439571946,-0.0267579608492363,0.923898236675813,0.0138022984144343,-0.0223727348522468,0.0428248897135258,0.653011907890683,-0.584769046223967,-0.894354422675134
576,576,-4.30790929474857,-0.0265465283540068,0.924115531034535,0.0146043687689152,-0.0279915047330223,0.0356078395471334,0.643462125166915,-0.614334796518099,-1.01662404217251
577,577,-4.30779902018109,-0.026336959689775,0.924250026581869,0.0191032723890833,-0.0311634840375811,0.0257715284084263,0.51166915521512,-0.606058563921662,-1.1063009063332
578,578,-4.30762380016346,-0.0261707488099859,0.924299611192339,0.0251042445529805,-0.0324502923875217,0.0144828668530988,0.447544302939151,-0.587312689034953,-1.0962837952298
579,579,-4.30739429053905,-0.0260898542304949,0.924262292567025,0.0312239820627591,-0.0334001283787937,0.00307983790239998,0.214595468681814,-0.524581046355694,-1.09522600548607
580,580,-4.30712150835098,-0.0261361705154105,0.924136352362596,0.0344998502727128,-0.0350621167520841,-0.0073823441371776,0.109883929958997,-0.527346895306493,-1.05524298654963
581,581,-4.30677903491453,-0.0263170153592534,0.923913166127344,0.0342887436762639,-0.0379537023781101,-0.0169596655717922,0.00322788604295567,-0.474449100084975,-1.01138570207946
582,582,-4.30636024037576,-0.0266051259462424,0.923595149100617,0.0327856189246332,-0.0417159554637691,-0.026532429554237,-0.0440167911938733,-0.539662651527081,-0.994048850167819
583,583,-4.30590600591645,-0.0269899187441456,0.923197765322822,0.0306080681491259,-0.0450481338131116,-0.0359281781058782,-0.0613045343944253,-0.512643175456862,-0.957363336691925
584,584,-4.30545716862686,-0.0274605287988943,0.922736772228516,0.0279386686306341,-0.0491542692819952,-0.0446776789466134,-0.0746053633383192,-0.528827604844914,-0.879217886728852
585,585,-4.30505445403658,-0.0280058116681129,0.922228158174025,0.0249568676987335,-0.0529291955951025,-0.0523417233776259,0.0397535377503068,-0.52365272329508,-0.732382172037282
586,586,-4.30469364020051,-0.0286157138298171,0.921663224885229,0.021762062207529,-0.0560435113044116,-0.0590316330956594,0.139169223353266,-0.527139627891113,-0.544309736802486
587,587,-4.30434849101555,-0.0292963998751312,0.921037721508669,0.0187017951568357,-0.059171731187464,-0.0645667220134478,0.172216176159129,-0.458545554110381,-0.390145746653044
588,588,-4.30402630200925,-0.0300609088219977,0.920372686103554,0.0165081807969846,-0.0635074306901787,-0.0681928549407223,0.153568532206696,-0.363516402358167,-0.370112938028481
589,589,-4.30373394972004,-0.0309224821718688,0.919686056324273,0.0157623650566324,-0.0681952052532202,-0.0694134825301753,0.0736459673787411,-0.243731134254642,-0.349930540998205
590,590,-4.30347798145721,-0.0318947599024617,0.918992275841858,0.0154669244696429,-0.0737807592089682,-0.0680524963659731,0.0428577055266247,-0.139161327019517,-0.329692942610213
591,591,-4.30322281043035,-0.0330511921513201,0.918242981010534,0.0149246798808718,-0.0825622606079439,-0.0644405329172669,0.0916790393210666,-0.0220858369721719,-0.243071920386007
592,592,-4.30296396500154,-0.0343809133304867,0.917429856681072,0.0116724061377477,-0.0923961283490499,-0.0556561651423043,-0.686773652881238,0.0689714696507869,1.0192458715135
593,593,-4.3027544889762,-0.0357729880655037,0.916623514735485,0.00172345891877161,-0.0995160874874049,-0.0446589456788694,-0.190741112095164,0.0460675241621087,-0.551941326839772
594,594,-4.30264742499402,-0.0371183277057889,0.915892488971065,-0.00747781655218991,-0.0994125504546697,-0.0387575534654063,0.374661931790715,-0.45783351918443,1.99189639637349
595,595,-4.30269581569667,-0.0383093483869533,0.915303307448882,-0.0066116724137362,-0.103396460634232,-0.0300187844121705,0.317813850039441,-0.412402381657158,1.31971695573891
596,596,-4.30294062002867,-0.0393516495996189,0.914850182703559,-0.00787028100735376,-0.097111580415031,-0.0208086565417104,0.251207568261671,-0.10403499625039,1.86027941783057
597,597,-4.30334648632342,-0.0403191258560883,0.914486102840036,-0.0112159958868925,-0.0875293355153421,-0.0064189199947276,-0.184736931503776,0.372485851106652,1.62571932234811
598,598,-4.30385175589808,-0.04120708756925,0.914214085016804,-0.016589968770997,-0.076310288729869,0.00719007125392683,-0.279129396446726,0.166353637577317,1.03001479060615
599,599,-4.30439464849394,-0.0420106097939741,0.914036616455094,-0.0214105635315067,-0.0609100535850309,0.0190293035623366,-0.417425774650399,-0.141624841998043,0.692171702420343
600,600,-4.30491333771089,-0.0427247056031805,0.913955806967202,-0.0246457833664341,-0.0496559280618488,0.0267496841277469,-0.322218298182503,-0.36150264225755,0.485050276042163
601,601,-4.30541882895632,-0.0432968808010241,0.914016587963259,-0.0250787479466441,-0.0481057462711768,0.0284040594237843,-0.584212152604536,-0.429590709499991,0.350810967795281
602,602,-4.30595206316341,-0.0437311747168994,0.914214972273051,-0.0220033856554799,-0.0508029512324684,0.0279920148923201,-0.632501331753779,-0.275287096003596,0.398656825493354
603,603,-4.30649610027423,-0.0441070668872817,0.914480038330297,-0.0181379591272975,-0.0566004882609542,0.0251965090538434,-0.485653815845235,-0.0545494275914833,0.23217806926645
604,604,-4.30703396096001,-0.0445036735407179,0.914741333350738,-0.0169854617089272,-0.0624080499473123,0.0208998227471235,-0.357630873083561,-0.153036910663319,0.0513945387341232
605,605,-4.30754861981154,-0.0449998109625186,0.914928661412547,-0.0178301675037226,-0.0699552093295387,0.0174173475013315,-0.55585008135512,-0.0391424036891112,-0.39805026599842
606,606,-4.30803939207241,-0.0455744753266956,0.915023781412301,-0.0231192925648037,-0.0789778855530359,0.0128902019666536,-0.703148910861323,0.221621725539998,-0.665178419523121
607,607,-4.30851741222978,-0.0461748304533783,0.915072967053453,-0.0313439942063301,-0.0861631017820709,0.0068545496903058,-0.884777502868363,0.249805338111113,-0.701898176831261
608,608,-4.30898338147855,-0.046831670156796,0.915103560858097,-0.0408447923724508,-0.0903578545673307,0.00106833451347518,-0.687126964367499,0.269204062253911,-0.413035497599459
609,609,-4.30943809901386,-0.0475758124063253,0.915143731070517,-0.0487752028808545,-0.0908393673534726,-0.0036083309370379,-0.440423116775392,0.224695322587034,-0.0820184597136224
610,610,-4.30988241549853,-0.048438065011075,0.915222522686071,-0.054181383753549,-0.0895352990255567,-0.00596582405019278,-0.0761042680854897,0.196040982194809,0.140542649739113
611,611,-4.31032907087308,-0.0495217304769938,0.915349604822561,-0.0574095381707079,-0.0882268228504644,-0.00518231458876635,0.271646002653529,0.167667516741513,0.240864162696012
612,612,-4.31077715509644,-0.0508053731088273,0.915508521176512,-0.0576513048614854,-0.0861790284194106,-0.00205254691116113,0.31895054221012,0.178420702660614,0.201135667638888
613,613,-4.31120731620495,-0.0521332096795726,0.915689550845025,-0.0548908154699198,-0.0864509342716742,0.00246971889455017,0.518529365160484,0.144915699257253,0.221212887323021
614,614,-4.31160078595439,-0.0533505049063138,0.915882348218863,-0.0492605917321205,-0.0911740940661926,0.00748915792974975,0.373459787697519,0.286471470581027,0.0592281136157899
615,615,-4.31193945943409,-0.054303653647146,0.916075856333985,-0.0441693636327585,-0.0974542853857901,0.011505723790749,0.632515241649164,0.0895270656313582,0.172952403219716
616,616,-4.31222469308959,-0.054882000212294,0.916256470232908,-0.0342628614118578,-0.102626815213209,0.0141909731698735,0.556363452105429,-0.0273765978233826,0.0500533898299199
617,617,-4.31247045048439,-0.0551908816105323,0.916434558805015,-0.0220492099334407,-0.106269272116499,0.0160605848781902,0.477104784556826,0.00768341093500066,0.0288216234347353
618,618,-4.31267730100826,-0.0554000480309299,0.916633164616145,-0.0108979745219355,-0.105373618151282,0.0176690948252465,0.435418185511118,-0.0177307364657171,-0.00501335675262813
619,619,-4.31284451475734,-0.0556770710167533,0.916873375209862,-0.00269781154893162,-0.0989631513213325,0.019747138627184,0.441583437264415,-0.0965323087812985,0.277372625345944
620,620,-4.31297006323055,-0.0561873651070287,0.917174316041641,0.000715320004714992,-0.0889362888187849,0.023121466392649,0.353538199201381,0.0170709312878528,0.472491210240666
621,621,-4.31303584685237,-0.057022500943501,0.917542483438761,0.00125406742621389,-0.0735163957257634,0.0290861488257637,0.024888943709284,0.17143518467858,0.653680890183052
622,622,-4.3130429407125,-0.0580699357263561,0.917963679241174,0.00123751454041183,-0.0564941329731308,0.0379223654254466,-0.0640801452203146,0.39714239794798,0.73974598702294
623,623,-4.31301731966074,-0.0591880242404753,0.91842463933135,-0.000748899672840068,-0.0412390167862917,0.0475571225078429,-0.127143899641383,0.516245631313676,0.541193129702952
624,624,-4.31298446373714,-0.0602357679275497,0.918911994835581,-0.00397462722065132,-0.0288029432010099,0.0554812673340117,-0.0347513426286333,0.66634182442025,0.525333285888589
625,625,-4.31296923662431,-0.061072723754834,0.919412278786183,-0.00695733185902987,-0.0180608891992849,0.060817106937762,-0.131443794925113,0.666528599799964,0.465850531505911
626,626,-4.31296431322055,-0.0616584162295833,0.919939076163659,-0.00935917974728043,-0.00679988556240691,0.0646975839450758,-0.252417949000978,0.572313605237927,0.375731496569989
627,627,-4.31295232831123,-0.0620855801740593,0.920500631234855,-0.0118637202060971,0.00597905823198538,0.068363633321183,-0.212157397406395,0.41240263458861,0.318383294060959
628,628,-4.31294294273759,-0.0624146734580776,0.921074877969941,-0.014484958073156,0.0171195314629844,0.0711965009501158,-0.277514525998272,0.370692087138781,0.125903130218586
629,629,-4.31294608154597,-0.0627071035363075,0.921638881899441,-0.0159193435518954,0.0256118444858061,0.0723825007093954,-0.288487639485968,0.301187722965358,-0.062814234924474
630,630,-4.31297189474922,-0.0630251402886904,0.922168883578671,-0.0151308477706566,0.0303013644827396,0.0719334275584353,-0.106598762139986,0.162689835066798,-0.197647545837562
631,631,-4.31302891421401,-0.063367720673205,0.92267905174503,-0.0121660409160967,0.0290895450260966,0.0690903215076857,0.0466165824997057,0.123292733772458,-0.35361254903445
632,632,-4.31311045896921,-0.0636949171307083,0.92318322594284,-0.00641974959666054,0.0236883440498204,0.0640342682768188,0.110973231295176,0.127295773305914,-0.48571370086661
633,633,-4.31320358922023,-0.0640104533654436,0.923656235321717,0.000756596524226837,0.0173210548393491,0.0574243997623469,0.241805102767194,0.00147509170850758,-0.586710597741982
634,634,-4.31329487084186,-0.06431706430184,0.92407249588679,0.00695812700539038,0.00963379839388498,0.0494260924294497,0.37300281285821,-0.032703134458118,-0.642748648946691
635,635,-4.31337044340344,-0.0646167006824049,0.924406204578727,0.0122182066326712,0.00421616777526442,0.0410208240891607,0.277297650420653,0.0202235172096677,-0.792907679115646
636,636,-4.31343300227782,-0.0649499969568724,0.924664965929221,0.0148907944542416,0.00110762329368775,0.0316286915073602,0.29075220724371,0.0229398947002845,-0.86859586877557
637,637,-4.31349093077585,-0.0653148295496247,0.924864211265948,0.0155363086419637,-0.00232860296213589,0.0208462617376599,0.280254090565257,0.0390259542135922,-0.935022919777276
638,638,-4.31353884491704,-0.065648589837299,0.924989945316696,0.0153209366439976,-0.00467110171958198,0.00945291380381557,0.193491945899913,0.0904258490677655,-1.05909814706938
639,639,-4.31357154645054,-0.0658886621451329,0.925028356711407,0.0153988105523861,-0.00692644184202169,-0.00194629446086902,0.0228329664678432,0.220113159669918,-1.1568809709064
640,640,-4.3135840006399,-0.0659724583181932,0.924965908979752,0.0160968064818952,-0.00738343240683839,-0.0129033870775254,-0.0318282276931097,0.290846275172031,-1.15061789405981
641,641,-4.31361626875355,-0.0658698827683035,0.924796995227027,0.0166441179231503,-0.00425669089162175,-0.0242222836164387,0.122309459719218,0.189749087262389,-1.10792963810963
642,642,-4.31367184672705,-0.0656224376700503,0.924531237891141,0.0166717254787981,0.00241523801724169,-0.0361131053956208,0.305386142883883,0.163950517577307,-1.13975021434405
643,643,-4.31369105141287,-0.0652751143319292,0.924178523439712,0.0165160251750962,0.0105147540277901,-0.0478449747676894,0.404150306220068,0.174951410353633,-1.14327900250259
644,644,-4.31361441654989,-0.0648731653595962,0.923749161415377,0.0174962435364238,0.0181266510614269,-0.0585901701900733,0.462084339700503,0.173955558004349,-1.06629739758796
645,645,-4.31338281257335,-0.0644622461829112,0.923253919539981,0.0200225689449328,0.0232522639507398,-0.0675294623678011,0.431316356610035,0.185668709700386,-0.869323018746739
646,646,-4.31295857636822,-0.0640478452980338,0.922676461895315,0.0247219033410398,0.0259041910818206,-0.0742598236928103,0.427108577444874,0.107487130061334,-0.628803250403714
647,647,-4.31238299738359,-0.0636018198165783,0.922014399243029,0.0312219244328569,0.0261131760498162,-0.0791048072562155,0.48282136801276,0.0360778124169431,-0.419241419363838
648,648,-4.31171527332591,-0.0631191757230943,0.921299041077721,0.0382049872151092,0.0256718534682386,-0.0820794914500351,0.478218966352118,0.041183656761677,-0.350151096416147
649,649,-4.31101387020467,-0.0625937049305646,0.920560279417207,0.0447308491555958,0.025905469306778,-0.0833818384162156,0.391604539957709,0.0512284167342281,-0.298709787580587
650,650,-4.3103364631554,-0.0620177147055595,0.91982629865179,0.0486587761695393,0.0278124817198373,-0.0833817810074557,0.210701299583149,0.106290694223252,-0.231575602688003
651,651,-4.309656832783,-0.0613821705697611,0.919078665905863,0.0497108267103957,0.0314663323864985,-0.0815505711132945,-0.0621131587234125,0.169463558295148,-0.165611431233724
652,652,-4.30893738864433,-0.0606926510237799,0.918303358348607,0.0486380633698249,0.0366674092779869,-0.0780196579780771,-0.158777155015042,0.206843632492356,-0.00856962350539739
653,653,-4.30821774661611,-0.0599618065434185,0.917531505761829,0.045783178316229,0.0423199602781697,-0.0735723580642832,-0.0717862601370022,0.30900791942586,0.14781318854611
654,654,-4.30753671059899,-0.0592015968769559,0.916790593131074,0.0414862533738487,0.0474392923226141,-0.0686102659432008,0.0580452557143807,0.322339970658962,0.253521591899396
655,655,-4.3069324083548,-0.0584233278973706,0.916104695763867,0.0348879253077169,0.0527341106491809,-0.0651242683167901,-0.29968083942891,0.399111535583806,1.14654416853197
656,656,-4.3064272423309,-0.0575898194298711,0.915439915013713,0.0300064488353922,0.0619750214861241,-0.0496037941674354,-0.654868499039826,0.748220007978183,0.60975683813411
657,657,-4.30599618335476,-0.0566923971662046,0.914778262699093,0.023280926207224,0.0656305603895704,-0.0387162726894806,-0.156127939318883,-0.128779307796815,-0.655616789534097
658,658,-4.30560551139737,-0.0557851536434099,0.914165508422634,0.0193826334307825,0.0663696536466863,-0.0383889393053521,0.354722796388933,0.68132921677901,2.2112164112986
659,659,-4.3052202794805,-0.054922601600524,0.913646451886304,0.0241229541380376,0.0673690451552495,-0.0261309304461858,-0.28085446306884,0.640474883284712,1.36715089261205
660,660,-4.30480401822162,-0.0541595313780607,0.913264914342494,0.0267493770247414,0.0635508899115207,-0.0171541305472815,-0.378709772553239,0.0827682054218195,1.23778238084349
661,661,-4.30441007324072,-0.0535206239353144,0.913039469608548,0.0309398064714279,0.0611753730853542,-0.00931902730640399,-0.196887713646544,-0.188494528075037,1.69873959016871
662,662,-4.30406095886343,-0.0529693350992104,0.912938892725463,0.0360301101791749,0.0547177580783359,0.00248050453067435,0.000659974151521151,0.849937501715834,1.14352149230379
663,663,-4.30367329849975,-0.0524688075805645,0.912931751110791,0.0397848743033387,0.045712174623083,0.0134563072613727,0.0284438203541197,0.568909139696145,0.704250713138985
664,664,-4.30316421404797,-0.0519823255751208,0.9129862798947,0.0449737562676912,0.0356522357102222,0.0230387795601113,-0.289910661082367,0.537773672741529,0.646354558724158
665,665,-4.30245124703954,-0.0514732953604967,0.913070510182635,0.0504423939399342,0.0285461705305605,0.028629777207186,-0.366858138738175,0.659717348588894,0.631901941436754
666,666,-4.30142034153821,-0.0509665043611482,0.913195817297987,0.0595945662227991,0.0236250591686517,0.0289903623255834,-0.417537413497591,0.187967559767332,0.656696523038906
667,667,-4.30012603808053,-0.0504873082794622,0.913382257502932,0.0741459862916927,0.0197527937664767,0.0268015171307294,-0.562388592868057,-0.22555564820197,0.186920528964447
668,668,-4.2987390551439,-0.0499985070341406,0.913610801997914,0.0904810586741485,0.0166309484994193,0.0214904627882129,-0.855419383258329,-0.150761941090585,-0.271321622113337
669,669,-4.29743030551058,-0.049461029228501,0.913862532366182,0.104936800218435,0.0147715757120624,0.0154706869055988,-0.975938254149414,-0.0661705696300306,-0.2337488174317
670,670,-4.29637088438925,-0.0488341655339283,0.914119100288238,0.115822614474184,0.0200575879241658,0.0121947402018494,-1.07371306622514,-0.145957087075804,-0.374195635693156
671,671,-4.29560334039466,-0.0481044172789484,0.914401832862915,0.116774065354194,0.0298921350462181,0.00967498605228883,-0.981009099523195,0.278265712348912,-0.130645020302924
672,672,-4.29501331880655,-0.0472951193113282,0.914725812021769,0.108330468048223,0.0441415605283382,0.00795668403231831,-0.740592912544784,0.425950388207106,0.393349707009518
673,673,-4.2945367556617,-0.0464208728838039,0.915064047558094,0.0964621160225473,0.0610170879698763,0.0074951563386052,-0.418273455177809,0.503347060259467,0.306900828752704
674,674,-4.29410994274595,-0.0454970812291585,0.915388567066087,0.0832308231834118,0.0748364995516849,0.00645093669929185,-0.130776807333307,0.446160769721572,0.228862101052266
675,675,-4.29366949640542,-0.0445397726276071,0.915669772678109,0.0732857387788999,0.0841151001849752,0.00536293291231597,-0.013531020198617,0.135909025799208,-0.101587632841435
676,676,-4.29323522670479,-0.0434582348982523,0.91586801879822,0.0680130679831328,0.0914470626313722,0.0030052518029011,-0.18353212431871,-0.311498277608697,-0.254947607050412
