,Frame,CoM pos x,CoM pos y,CoM pos z,CoM vel x,CoM vel y,CoM vel z,CoM acc x,CoM acc y,CoM acc z
0,770,0.161194534763605,-0.169053189160837,0.945792574319639,0.076820638188783,0.140872195549519,0.0229660809784692,0.06902366304181,-0.256825974331325,0.0436724859253011
1,771,0.161903388383871,-0.167469235271819,0.946040503345338,0.0750515431296604,0.141464275991859,0.0236295245045482,0.05038152405795,-0.26073673834557,0.101304153845334
2,772,0.162651117938237,-0.165919318262144,0.946294631750152,0.0741174044995893,0.141753927263405,0.024927375293782,-0.0111777925261963,-0.197076084205269,0.165759172628002
3,773,0.163452690710616,-0.164409721290666,0.946555116847066,0.0752586822422759,0.141091383190717,0.02652918811637,-0.0340316799477053,-0.212688182486265,0.215342385027092
4,774,0.164302051990139,-0.1629442929492,0.946819801372727,0.0776977702098812,0.140498783940275,0.0278185825714391,-0.0691774634482975,-0.237663065128075,0.207334672343386
5,775,0.16519016224321,-0.161523104198306,0.947082947041773,0.0806403357656878,0.139055600721582,0.0287220832493384,-0.0748514159833289,-0.287905910582122,0.185734681859318
6,776,0.166083873934427,-0.160167480810005,0.947344361854414,0.0814848489408776,0.13573693980718,0.0298751389313025,0.0262730972629034,-0.332629103099756,0.185635817389774
7,777,0.166980945036449,-0.158871698942997,0.947599531048051,0.0818632243100287,0.132020779841115,0.0302353163637265,0.0200909899403621,-0.39320095346559,0.130111465184339
8,778,0.167891573578354,-0.157673749161044,0.947842946790157,0.0820194889607732,0.126759925643449,0.030086719213413,0.00522494371460405,-0.365687950377501,0.0907872457151401
9,779,0.168804606325471,-0.156515221137455,0.948071308274805,0.0838208510042572,0.121973306943358,0.0287304317031686,-0.0484636151444461,-0.393867093773156,0.00480831724640692
10,780,0.169758781323462,-0.155376995899428,0.948275803178825,0.0876171938478951,0.117459384038115,0.0260993763746506,-0.0709381307275009,-0.419222025558998,-0.0944479718135248
11,781,0.170756865596994,-0.154233953396263,0.948453091559866,0.0916112679335651,0.113617166287091,0.0231108598520355,-0.0733930258819696,-0.393887309467081,-0.141913586701462
12,782,0.17180643375103,-0.153071779881113,0.948603330521961,0.0968996850305845,0.111210916050402,0.0194763153065061,-0.054595333840835,-0.40503716926768,-0.19956896242417
13,783,0.172919664022365,-0.151869782961624,0.948727172854105,0.103356368643088,0.110411830490712,0.0159306333282209,-0.0693066674470302,-0.379751860510845,-0.196773727892743
14,784,0.17408323418731,-0.150603480884254,0.948830985072603,0.108932149511701,0.112648839747356,0.0130921725483625,-0.0590520103277126,-0.31353259646802,-0.153165063576433
15,785,0.175295685536351,-0.149286606838246,0.948920546528155,0.113822286701308,0.114968064885408,0.0106810475763736,-0.0691771756088887,-0.245076052236005,-0.126749969972388
16,786,0.176550231822599,-0.147904134939399,0.949001098756998,0.117850457975991,0.120039745186222,0.00927004887322407,-0.0657591405760113,-0.188667620338801,-0.0497099256673286
17,787,0.17782358640139,-0.146471271791436,0.949081676890432,0.119982099502936,0.124089890865747,0.00899273686737064,-0.0891118604066282,-0.198682362075233,0.0286420389485099
18,788,0.179087176336322,-0.145022608397135,0.949168241061897,0.119565505111646,0.12632654066897,0.00945529688836105,-0.020439533464316,-0.146952071436172,0.0555820439674974
19,789,0.180325137192179,-0.143584490955319,0.949261197585012,0.118213758117997,0.126355642214232,0.0101587473339226,0.0612896070789126,-0.115703120145897,0.0624974267229383
20,790,0.181547519223244,-0.142168941455837,0.949357427181863,0.117872935032731,0.126294901309602,0.0104946582960554,0.039148335989337,-0.110569089214421,0.0492887861903065
21,791,0.182766346455979,-0.14077575251817,0.949454992757595,0.118562963048525,0.126206374819756,0.0105334660518277,0.0354357979231836,-0.196644011526987,0.0438139766900207
22,792,0.184006015236086,-0.139416571446853,0.949550640875765,0.120575173721252,0.126001755578023,0.0100976326382141,-0.00314434774506934,-0.190303823656262,0.0226796003649091
23,793,0.185262210765289,-0.13810032115297,0.949646311047527,0.121947697633023,0.125129231147014,0.0102228403361361,0.0472097869441947,-0.208870228968239,0.0578435261175544
24,794,0.186538720229895,-0.136842822181966,0.949746151804454,0.123091265606384,0.123306299893676,0.0107136879943021,0.0613544274531323,-0.10671386255287,0.0836347434961897
25,795,0.187825244731932,-0.135640310868699,0.949853955503023,0.123231717881043,0.121461905858678,0.0116774059807573,0.108582852906959,-0.089555850881718,0.108134547193736
26,796,0.18911887503093,-0.134490096661106,0.949967262673581,0.123148786690095,0.118661061948401,0.0121696584709201,0.0756949982189078,-0.0454546834655879,0.0666478436751577
27,797,0.190416825708608,-0.133379546024155,0.950078009629709,0.123642320498154,0.116047026490554,0.0117986237194282,0.0637079354036846,-0.0412311100282012,0.00327887916859349
28,798,0.19172796351915,-0.132330619733379,0.950176636948282,0.124479622361381,0.112626456868045,0.010454534222379,0.0109889811194402,-0.0581328058220659,-0.0732754745599942
29,799,0.192996810702736,-0.131285566466169,0.950266447522596,0.123879943548087,0.110361824888396,0.00917154842678796,0.0629724446276039,-0.0124216919176922,-0.102503338859962
30,800,0.194258655231812,-0.130227465040704,0.950342089234557,0.124631281664404,0.108451821866804,0.0070681319814805,0.0353880740106388,-0.0785637439714054,-0.15212459858138
31,801,0.195503680109148,-0.129150159545762,0.950406292220732,0.124496345616636,0.10722490617627,0.00556089217895756,0.13246559280417,-0.0549392683861084,-0.139245501020799
32,802,0.196747168337997,-0.128053995034847,0.950460553693792,0.125291136820368,0.106203516111066,0.00390799383054226,0.169867690708737,-0.0776329404182264,-0.15281684816455
33,803,0.197991865323643,-0.126929720926174,0.950540879155157,0.126581083162272,0.106791866896923,0.00300215180909776,0.257860922152389,-0.0874057030404828,-0.132915358511783
34,804,0.199244807429692,-0.125773675947827,0.950609443374064,0.128686740783779,0.109027586665241,0.00188057654289826,0.249642406452138,-0.132755988980175,-0.122014907853978
35,805,0.200504224986999,-0.124577682732029,0.950673871930013,0.130797554052803,0.112629878389552,0.00157834146368707,0.270078963868025,-0.0958486229312367,-0.0533275846299798
36,806,0.201752069629094,-0.123355895587548,0.95074464049052,0.131407649276085,0.115971211215927,0.00266249478681436,0.302987387025224,0.000216370790342623,0.0409139738834626
37,807,0.202958512939765,-0.122122698204386,0.950837558377331,0.128316822397774,0.116309241842464,0.00623486779332035,0.377076675868246,0.0479671383486302,0.19324313297521
38,808,0.204140452745456,-0.120874314095689,0.950952863968086,0.12589773604006,0.116111128750299,0.00946346500960654,0.327133315107365,0.0155417588856733,0.202062258113893
39,809,0.205319410800101,-0.119611377798927,0.951075006334868,0.124801858548358,0.115585883415686,0.0110165557667296,0.199617548655528,0.00203810773499378,0.107187218512585
40,810,0.206481577600131,-0.118342052876804,0.951193489891852,0.122921700341827,0.11346638716648,0.0115564015027306,0.144329411755383,-0.0135605032593041,0.0142080910785059
41,811,0.207638446564258,-0.117071528128343,0.951296864885226,0.121893984752078,0.111783944804548,0.0107187032699393,0.138766768874705,0.00717266021864647,-0.0912296732461762
42,812,0.208805708336549,-0.115786440793193,0.951380595432793,0.122783418279032,0.110508777157592,0.00873001041702653,0.106427733919384,-0.0280039955076038,-0.181424149179048
43,813,0.2100181529048,-0.11447963571786,0.951439366009733,0.125569530665707,0.111235731796266,0.00598714600111844,0.108157260798909,-0.00998632602891567,-0.229489585620394
44,814,0.211270299459513,-0.113111405483438,0.951474073422545,0.128746085165597,0.114643500747715,0.00330717516382025,0.122728390201317,-0.0678956986978655,-0.22101201783919
45,815,0.212589903275707,-0.111665967747328,0.951483083710219,0.133585005375947,0.120886506528996,0.000242245092242282,0.0736462271969471,-0.0279519616671738,-0.226490375743633
46,816,0.213966193678375,-0.110126654094691,0.951471353178608,0.137540560220328,0.128798066494873,-0.00212888465691389,0.121953090799773,-0.0406101626797085,-0.187750799960397
47,817,0.21534468070158,-0.108486109170125,0.951452170266683,0.136558778979156,0.13804822864368,-0.00289765107260216,0.203303498728435,-0.0380229375741916,-0.122423426306486
48,818,0.216697446833087,-0.106801810176813,0.951434306416388,0.131939703833163,0.144655104060578,-0.00259878517883955,0.168653617671091,0.0496778483863356,-0.0879587419451628
49,819,0.217944403477431,-0.105059073600989,0.951427319386927,0.12504461805114,0.150665086660216,-0.00169871059922623,0.147089278192119,0.0836064772574845,-0.0671942840421119
50,820,0.219082598326626,-0.103219598631504,0.951426931449546,0.117502263312721,0.158096403851409,-0.000631585655792217,0.0799902997882485,0.0559264210251533,-0.0372632483031016
51,821,0.220148060242304,-0.101229186233353,0.95142163689753,0.11299038560975,0.168904946617862,-0.000787812284870336,-0.0758451912467765,0.0519484106993762,-0.0468395066733907
52,822,0.221191311453504,-0.0990406772252539,0.951399532940977,0.111949732585779,0.181585966997279,-0.00163993500602684,-0.135898240888885,0.0518890139969807,-0.0366705567530451
53,823,0.22226491515519,-0.0966358520573807,0.951349660963892,0.113013759138083,0.1944695466359,-0.00295936937259934,-0.128988269434758,0.0751616368427593,-0.0328520695475292
54,824,0.223428984581464,-0.0940181762209857,0.95125766079231,0.117542372559833,0.20430247344888,-0.00506379012681748,-0.0412005011038949,0.0974425640444047,-0.0681319803842308
55,825,0.224696009405628,-0.0912352771285083,0.951122697442431,0.123198525315194,0.213119925206902,-0.00639214682198722,0.112964677776195,0.0271316026333694,0.0142157337170731
56,826,0.226043322490804,-0.0883807479301442,0.950963108330347,0.128770402420794,0.220685503692177,-0.00733923226732248,0.0705586027347489,-0.0232164196193936,0.0896960036677025
57,827,0.227416601298764,-0.0855209594037663,0.950797281141821,0.132626702800309,0.228733308338699,-0.00780158540648009,-0.0294671341283819,-0.0641220415908003,0.163991256911665
58,828,0.228763705301573,-0.0826937784109778,0.950639634105452,0.133566806831964,0.23542636566967,-0.0071890066212207,-0.0758998876469184,-0.16819437208993,0.263407804941318
59,829,0.230048386073571,-0.0799256271146209,0.950498569745241,0.131292819093364,0.240978760926073,-0.0058088701490133,-0.02922317163945,-0.201015011550168,0.320909259660153
60,830,0.231238320153957,-0.0772496523236521,0.950383814733577,0.124248016272718,0.244093456584125,-0.00299096988251461,0.0263081005458269,-0.140152786043898,0.392662763284666
61,831,0.232303089196481,-0.0747726306403067,0.950323769273905,0.112802806491605,0.242994850108318,0.00147974642677256,0.0148282248729694,-0.00895480767653881,0.428988753734185
62,832,0.233235626805429,-0.0726088022110098,0.950261551592738,0.102097514937218,0.237557037019661,0.00296930411163587,-0.0870557132965114,0.151386546055995,0.284644023052222
63,833,0.234049477143916,-0.0707928559628873,0.950238188583719,0.0938523839652762,0.228795126814381,0.00326006632905476,-0.232032689349084,0.26394476356229,0.169231825762301
64,834,0.234798790022798,-0.0694078386717457,0.950241469782454,0.0887442376097471,0.216393451950723,0.00172160245991398,-0.370823460297222,0.296318493280601,0.034178205128598
65,835,0.235542131193715,-0.0689971737683335,0.950282381781266,0.0862400695074006,0.190479456958794,-0.000826123977414391,-0.508937762305838,0.22375860016145,-0.0752806863324368
66,836,0.236339117652798,-0.0699110009047155,0.950366933813248,0.0843795705571988,0.145565765866862,-0.00286491544958594,-0.527244285316841,0.117365374421292,-0.127086789604973
67,837,0.237178875442209,-0.0717516719841515,0.950489063126872,0.0826973697706356,0.0886435747356028,-0.00363448522739638,-0.380612398439351,-0.0548949723747604,-0.162583188851527
68,838,0.238088972567134,-0.0738864173386047,0.950623017701878,0.0813054642292768,0.0341110536575958,-0.00391184293872674,-0.281016905857431,-0.116047192146849,-0.1971398326345
69,839,0.239059443017534,-0.0759372258753315,0.950747166972522,0.083389215806125,-0.0102051278244529,-0.00512985781069658,-0.268675275403174,-0.23561690639464,-0.254932920194312
70,840,0.240134512102778,-0.0776438319999195,0.950835848197258,0.0898279530028687,-0.0395110718601297,-0.00861735263259408,-0.389861760019474,-0.325145054221387,-0.360763167789135
71,841,0.241326192060192,-0.0789245904573049,0.950885228385794,0.0989252678350308,-0.0572891946647281,-0.0121736217743478,-0.339695834367574,-0.300650434003071,-0.344144425531084
72,842,0.242611623168869,-0.0797608626171971,0.950906096744211,0.106144220811028,-0.0654360522573792,-0.0144257747742407,-0.139730112973833,-0.301674357052536,-0.293708264937048
73,843,0.243940044035279,-0.0801978672897725,0.950916342044277,0.109740150546914,-0.0672468216304851,-0.0136846389494313,0.0210631568115443,-0.254146233303361,-0.116877064280147
74,844,0.245286675636264,-0.0802794104530501,0.950926711767811,0.111366320041075,-0.0628165063198153,-0.0119925221233052,0.018979208323388,-0.166884483010585,-0.0497983633758126
75,845,0.246640713264686,-0.0800491345410342,0.950928767300133,0.113176713248325,-0.0512354862203997,-0.0112531622390414,-0.0968479384519715,-0.0515438070731769,-0.0776772989465327
76,846,0.247993605653691,-0.0795315553846089,0.950914649413416,0.11477346215266,-0.035693992090756,-0.0109492139572671,-0.22987252977523,-0.138119174796309,-0.0218432239325151
77,847,0.249394838572014,-0.0784587018495058,0.951042332778541,0.113347539378634,-0.0190632406098594,-0.0103280215792341,-0.28315667213647,-0.143070716864471,0.0357222792294742
78,848,0.250659963153219,-0.0774269624590176,0.951007006648342,0.11126884998853,-0.00191932605754604,-0.0101930821060058,-0.385141054127886,-0.0446769633410274,-0.0472703228624148
79,849,0.251789762006724,-0.0762928525217,0.950983316986071,0.100738545289451,0.0156918595524835,-0.00610099010102854,-0.205846740280506,0.0452065936805026,0.0547856298698856
80,850,0.252823512372865,-0.0750630514702653,0.950961016165754,0.0913005285408932,0.0326473858065723,-0.00320879428366204,-0.223873179163814,0.035704028397981,0.0398771951002104
81,851,0.253780798029852,-0.0737981007069209,0.950916584546654,0.0846854032673169,0.0477517099000154,-0.00259201261296235,-0.256749758223995,0.027083204283939,-0.02153525812729
82,852,0.254713600680596,-0.072533144619566,0.950830893970724,0.0827099904772372,0.0605324696261621,-0.00520614717232402,-0.328491442914922,-0.0401237935522686,-0.151326744621669
83,853,0.255652047250173,-0.0712690148789939,0.950698091635726,0.0845139277320689,0.0725886782212291,-0.00942389937496101,-0.353657247414724,-0.116905039361417,-0.200856948854162
84,854,0.256603377454989,-0.0700505291624317,0.950531495724287,0.0868512768301937,0.0812094109549264,-0.0134806440331032,-0.280566821115994,-0.155891138735084,-0.2064272898592
85,855,0.257558603440631,-0.0689073648710751,0.950350552509001,0.0875901532525617,0.0859696286435931,-0.0156660214476259,-0.212827938212738,-0.117477352805945,-0.118057434872123
86,856,0.258494120346032,-0.0678655679049712,0.95017884506341,0.0864894578342617,0.086733972451358,-0.0151689157020089,0.0361077447918318,-0.0804060437858598,0.00524889143848334
87,857,0.259439002796697,-0.0668981099843011,0.950019188119795,0.0878311839694819,0.0862679253379652,-0.014672345595666,0.135925100026343,-0.0606130761716387,0.0261091145289691
88,858,0.260437200111673,-0.0659382516423335,0.949863182871886,0.0926995223559774,0.0857545529865756,-0.0153608958387934,0.0889027393302678,-0.13191717085864,-0.0131819258250548
89,859,0.261448380682124,-0.0649952668473844,0.949703174732805,0.0973472291500286,0.0859888485503184,-0.0164756040809241,0.181124983961875,-0.127556688895952,-0.0657608527760195
90,860,0.262466617013747,-0.0640498471957439,0.949543221191899,0.0999627416053134,0.0850525645544238,-0.0166884170891404,0.282511298267988,-0.05302816628058,-0.0635806110491155
91,861,0.263479635944383,-0.0631024779966377,0.949389517807051,0.100530179184803,0.0823320250518003,-0.0157234722366734,0.324972220428219,-0.0174478283676343,-0.0396113883566153
92,862,0.264472415802417,-0.062193327698327,0.949247987618319,0.09897959243136,0.0771636244852303,-0.0143652824105624,0.374685920504139,0.00352577672814996,-0.0693860400477329
93,863,0.265445142115477,-0.0613352122874815,0.94911414377902,0.09797237527137,0.0712059404872688,-0.0130665932101987,0.379237236446683,-0.0393791758199466,-0.0719764133748948
94,864,0.26639945574186,-0.0605623502472174,0.948977486972979,0.0974887804992178,0.064561838782091,-0.0132066031410254,0.412307046013322,-0.0725879637838831,-0.174364432315449
95,865,0.267326210024623,-0.0598854704447186,0.948830393794616,0.0975805503048505,0.0585104140956045,-0.0139890639027695,0.537818469492293,-0.127913135505061,-0.219614777384881
96,866,0.268233169961498,-0.0593194105768922,0.948667781270454,0.0993935385190345,0.0512531479421627,-0.015489689904668,0.624779774515727,-0.214486906719631,-0.24237983015465
97,867,0.269145944949835,-0.0588356299507386,0.948480150480104,0.103877403351132,0.0469965376913894,-0.018210431041045,0.712268473746947,-0.126850736477915,-0.319341782189813
98,868,0.270035580224317,-0.058419224164083,0.948266070444101,0.106853132728561,0.0425364907427578,-0.0210586832902473,0.762267410284021,-0.011751637661308,-0.367038483016574
99,869,0.270886283443692,-0.0580526813203361,0.948014755311368,0.107945114613536,0.0367099274334043,-0.025069413126421,0.69155004800731,0.0253710980017237,-0.467492795701066
100,870,0.271667554028335,-0.0577522595317745,0.947715278411729,0.106279199236174,0.0274244130744641,-0.0282939242515204,0.608660834048218,-0.191997495532939,-0.265963532938366
101,871,0.272397102917582,-0.0574817158821983,0.947382065923898,0.104634637671024,0.0216932386036249,-0.0329447971568341,0.456787228215717,-0.160093185210267,-0.337006452562902
102,872,0.273073672024793,-0.05719868959416,0.947016672330771,0.101091785514119,0.0184247992587285,-0.0361576004230077,0.235388196072483,-0.104687821120669,-0.241444660775598
103,873,0.273714609376768,-0.0568445233399223,0.946625386775417,0.0984246666906896,0.0199267600388745,-0.0405947737571378,0.0962664458061192,-0.181903564661593,-0.356505988659039
104,874,0.274376395033979,-0.0563677125367916,0.946198228871585,0.100552945846997,0.0289089791526974,-0.0446167678347455,-0.0115509963587263,-0.0937064216230662,-0.282285200470102
105,875,0.27489008286512,-0.0557604462941264,0.945777878835011,0.108713037634118,0.0422345436295822,-0.0432813905576353,0.373785138751882,-0.174793012601916,0.080455738725041
106,876,0.275711319148834,-0.055025549793088,0.945360777600537,0.112782192086978,0.0557935109737129,-0.0410312887252097,0.756246770870415,0.448670268262225,0.161075972600682
107,877,0.276562429640939,-0.0541214979312434,0.944980476215881,0.108487594250462,0.0625521112290255,-0.0365168282963983,0.388403440163129,0.0371730875675399,0.409949367588234
108,878,0.277396646792144,-0.0532476102425823,0.9446313678793,0.100743184718073,0.0670297446484312,-0.0326903087884067,0.221749130172981,0.252085367556064,0.490628444781288
109,879,0.278254686274325,-0.0524163924162402,0.944332000351867,0.089722775721168,0.0634021040758703,-0.0282627855704132,-0.117705251632533,-0.0660673308414963,0.541872601502643
110,880,0.279062300160578,-0.0516227764993789,0.944079167717116,0.0760852424922378,0.0584996525108737,-0.0221406030396417,-0.283646313888952,-0.401382732233819,0.576772958996388
111,881,0.279880776005814,-0.0508321171045278,0.943851038050693,0.0686601262505267,0.0557007875900634,-0.0178443926807365,-0.325949731298989,-0.57949513649709,0.433934328378
112,882,0.280726226155263,-0.0500327153966062,0.943625283190748,0.0672903283046137,0.0540960362750348,-0.0170143176597606,-0.191254748249043,-0.600859853462713,0.123418980857851
113,883,0.281601366602799,-0.0492412618213644,0.943380310467225,0.0689061678529788,0.0514085636224091,-0.0180854266661529,-0.0140364685110048,-0.533085458289633,-0.0834041397157505
114,884,0.282526337373494,-0.0484764499325222,0.94309760850337,0.075073048384777,0.047082298815911,-0.0205643307681471,0.127609294224924,-0.460584242650861,-0.170351531107505
115,885,0.283513584632094,-0.0476596783473526,0.943139359005872,0.0829661759920724,0.0457948391404094,-0.0195033080687252,-0.0189361345136097,-0.520482008071465,-0.301962184604606
116,886,0.284631378319557,-0.0477726647315213,0.942843651594194,0.0909514026287745,0.0347260961581591,-0.0238702678063332,-0.237556170319735,-0.499706795388226,-0.35625049723555
117,887,0.285780113129909,-0.047201514442326,0.942542610442981,0.0971604015905682,0.0308927554511768,-0.0275492844597935,-0.277113125234134,-0.447439226548173,-0.327467826506835
118,888,0.287128134789993,-0.0470522512362767,0.942249959313941,0.104986341609331,0.0248070741083428,-0.0297946651581371,-0.37519691854531,-0.529202228338951,-0.232253058247488
119,889,0.28860943121702,-0.0468619863600501,0.941986617761604,0.110326170074422,0.0189869537239369,-0.027653401949977,-0.483287252445015,-0.576402504662745,0.0630527059853711
120,890,0.290178212974631,-0.0468762490718445,0.94177279143767,0.11387543160916,0.0103792485983206,-0.0225863162869278,-0.584303483847718,-0.361369591668402,0.283104685987174
121,891,0.291710514800805,-0.0469609020109833,0.94161664049663,0.113926312527867,0.00425153516604776,-0.0144955284787094,-0.607810844918552,-0.0594347987593671,0.540715086916178
122,892,0.29314242648557,-0.0471122223451687,0.94151388780155,0.112425259573602,0.00102854138034925,-0.00597296327085444,-0.688241920556511,0.100197903933899,0.653411274135958
123,893,0.294446451019019,-0.0472561204681148,0.941451258463086,0.109663817019251,0.00224445985923483,0.00200230928898013,-0.667122866503015,0.133497032156923,0.676614151299324
124,894,0.295660046056127,-0.0473600424842745,0.941407902475872,0.107036586523154,0.00616182061439169,0.00754391534333663,-0.661139495475755,0.192197122254568,0.547649983615009
125,895,0.296806874830357,-0.0473740092168307,0.941365311210308,0.103838278601234,0.0119295994884059,0.0112314268143096,-0.599338179979127,0.065320246251501,0.430625004106911
126,896,0.297943601373077,-0.047311973487304,0.941399583185097,0.102647632504704,0.0166796927790016,0.0136003885261778,-0.50570673901214,-0.0989583312534769,0.324042089517385
127,897,0.299124526384871,-0.0471953519687514,0.941498286128932,0.103447135241352,0.0192440479523957,0.0161835087426562,-0.340505814219421,-0.265096774204166,0.324133981986925
128,898,0.300363587211305,-0.0470748952440238,0.941631200996262,0.105290699816634,0.0164194935078804,0.018726321569283,-0.265880842738395,-0.33326725432905,0.324615922325914
129,899,0.30163618983876,-0.0470062828246371,0.941791396462937,0.107473444034031,0.00903623570168974,0.0219489124825816,-0.130313438507643,-0.4069867761741,0.356968340401474
130,900,0.302926179208765,-0.0469916472179412,0.941967354921985,0.110728298519253,0.000532657160194424,0.0234883613070028,-0.0796896695503234,-0.429433414273776,0.249511691244701
131,901,0.30422616014537,-0.0470068767567795,0.942138303988794,0.115592931010423,-0.0065184732328501,0.0231510887409653,-0.0688078073960276,-0.425045352925737,0.138147311640652
132,902,0.305522670142565,-0.0470003681388577,0.942283513437253,0.121332846217104,-0.00922460946752171,0.0203733640428558,-0.0572835295037365,-0.38186520936867,-0.0290706504480162
133,903,0.306812435253656,-0.0469513354075232,0.942392219188782,0.126273673581291,-0.00864836371054848,0.0166281952424445,-0.0361493679584873,-0.278143480692817,-0.110685247542251
134,904,0.308067790143147,-0.0468403841139441,0.942686147554655,0.128247216645651,-0.00551153208254733,0.0152111207964361,0.00191564638656521,-0.183232034981255,-0.181390237558954
135,905,0.309291250170778,-0.0466652496575378,0.942935343919963,0.12760298210161,-0.00088496073852763,0.0136166813765765,-0.0363272616595831,-0.0402515324262506,-0.221887026595879
136,906,0.310469744777719,-0.0464076036013311,0.943142873115951,0.124520296468995,0.00548173578520421,0.011882420250886,-0.0737911176477774,0.0620566736386717,-0.234063258063434
137,907,0.311612980165529,-0.0461141860304938,0.943292669280314,0.119440823466624,0.0126522656915748,0.00991821070741609,-0.0683002408343494,0.174311712926808,-0.213979329958974
138,908,0.312684618828761,-0.0457503820071594,0.943388122416866,0.113481103676874,0.0190783943792315,0.00807292826423339,-0.0896506099886196,0.273001954143321,-0.188439258925543
139,909,0.313702256257794,-0.0454064933228156,0.943461907537716,0.107907150636238,0.0239729925601027,0.00649229728228108,-0.104301889784579,0.242616011800891,-0.164367852264157
140,910,0.314742749199122,-0.0451407372371417,0.943559163582031,0.103411076660033,0.0263095588553328,0.00506386493118971,-0.215020393625417,0.319700111639223,-0.151009886316549
141,911,0.31579229021537,-0.044940187458555,0.943598345027019,0.101728494233633,0.0267517669774882,0.00329819895356974,-0.158516891048351,0.30755312455909,-0.144639224937786
142,912,0.316883369572056,-0.0448206739067625,0.943635601640613,0.10089977191263,0.0243265870362494,0.00212623157656996,-0.138838199213676,0.303964701276263,-0.128973474644747
143,913,0.317973863810584,-0.0447662438096231,0.943675188547971,0.100132245896138,0.0200401788497789,0.00169901757586388,-0.0728060324606375,0.286229425794423,-0.0973977693361157
144,914,0.319185167962115,-0.0448905022029838,0.943729242996181,0.098430586709763,0.0148143887210193,0.00203395613892559,0.0341102449198098,0.372365318999762,-0.0676125038087746
145,915,0.320226810144539,-0.0448907968320567,0.94377533835695,0.0992135204518524,0.013837576284968,0.00107557157341903,-0.0120786374114165,0.241115175031274,-0.12127720973369
146,916,0.321246489719778,-0.0448990390661332,0.943830923556978,0.0995156250008486,0.0110714937470671,0.00148106964332812,0.0924009876183808,0.319634554996772,-0.0651543514485549
147,917,0.322248956051047,-0.0448822507330591,0.943897683260946,0.0995476720248359,0.0103063431799808,0.00150570094151015,0.124111058953091,0.22773593292285,-0.0730302475338955
148,918,0.323237812381428,-0.0448188259660354,0.943965118749866,0.0990959995776818,0.0105381781056899,0.00167693707124545,0.159847728314968,0.191914397261225,-0.0578494126813154
149,919,0.324212616902689,-0.0447595296617383,0.944038979365935,0.0990022478329193,0.0107549535633511,0.00169515863808529,0.183897743395128,0.189527340131907,-0.0849249814820609
150,920,0.325181585143217,-0.044655366291476,0.944114920180158,0.0993217552806577,0.0124512810494038,0.00109316551032929,0.171732090274359,0.119108541050951,-0.13298768814392
151,921,0.326156831554745,-0.0445022891858374,0.944185997989322,0.100546176286329,0.0153663351053408,-3.28456920421446e-05,0.129019072831043,0.0940764818144215,-0.16137192646976
152,922,0.327136148561774,-0.0443232360267475,0.94425018467451,0.1023023367454,0.0168850852939136,-0.00155717053404932,0.0919155420467607,0.0582905291523434,-0.18517016704431
153,923,0.328099851869247,-0.0441241618455573,0.944338081763309,0.104253455436892,0.0167638015016265,-0.00216192959956836,0.1137465413787,0.0417613502221486,-0.109615526108515
154,924,0.329098493508349,-0.0439403917748674,0.944407629063146,0.104976449716338,0.0166799513715755,-0.00175509476608317,0.157812559595582,-0.0166351890640554,-0.0562992022613103
155,925,0.330085254746232,-0.0437660900341004,0.944491781785163,0.104083033938411,0.0153031384379614,0.000781343433636613,0.149691451140033,0.0818850733070326,0.0674137974310711
156,926,0.331037588833442,-0.0435613140068953,0.944516777705329,0.101803038074389,0.0148123785275244,0.00362027011945248,0.160067651142809,0.0769802538057209,0.139037034791445
157,927,0.331946141924222,-0.0433283514560745,0.94461169604211,0.0986899427562592,0.0166024615493513,0.00606414412158617,0.0989909168568733,0.157965998674862,0.116338590797141
158,928,0.332816058274349,-0.0430490575401915,0.944715246710499,0.0957380567320913,0.0211682362122178,0.0077935859126225,0.0308117348808353,0.141500664107214,0.110815167908502
159,929,0.33363445539949,-0.0427017830802984,0.944817902998204,0.0921339157778998,0.0257105834548757,0.00881064591334351,0.00103390213982229,0.123881764558888,0.090928598872917
160,930,0.334418099537032,-0.042269808969795,0.944917836439714,0.088791985538557,0.0322238908921429,0.00909993638204116,-0.0129932015056302,0.123194506314285,0.0508261740200134
161,931,0.335188856724426,-0.0417658535339442,0.945019661973531,0.0859161197188504,0.038223374491508,0.00979135736000366,0.00755011024723234,0.110462343729063,0.075196195973508
162,932,0.335959392855478,-0.0412066172148444,0.945128159429534,0.083729527886458,0.0441642597811649,0.0106074544278651,0.0494069510863312,0.140619977651344,0.0754379844075475
163,933,0.336752792294414,-0.0406018435969262,0.945243665160364,0.0831317100317245,0.0494016853202901,0.0109484906925084,0.120358059841099,0.165967527979418,0.0298168333930248
164,934,0.337579992509022,-0.0399722751958272,0.945365090861324,0.0830834413280279,0.0541638157787768,0.0109765551660547,0.14371715346534,0.170123744551255,-0.0230410162060515
165,935,0.338451410368565,-0.0393204595184166,0.945488391126103,0.0845407606779639,0.0578305120604463,0.0104689937164262,0.153393838979575,0.200775716283398,-0.0743867263931182
166,936,0.339359289928594,-0.0386669220801436,0.945608546214847,0.0861561738922844,0.0599702598813959,0.0094532386199134,0.159683603855278,0.188188702154294,-0.144628021200404
167,937,0.340309986528979,-0.037995556437839,0.945718691003234,0.0880564624419785,0.0621328908744291,0.00863358445945724,0.166270277014344,0.207243547423332,-0.151212140091503
168,938,0.341291029943067,-0.0372947748784462,0.945811598889967,0.0905607883567988,0.0633400012967289,0.00705442337230281,0.196484512564498,0.190246015814403,-0.211575975807731
169,939,0.342302271767983,-0.036618835781089,0.945888154199548,0.0943136127119678,0.0649264506692367,0.0052681275526068,0.196844757511853,0.190254275282013,-0.218124414835041
170,940,0.343339170645976,-0.0359276887285328,0.945951051426076,0.0976146090326419,0.0662465347754661,0.00419339389070138,0.216805930242203,0.19329321872888,-0.168835336681568
171,941,0.344383900096737,-0.0352269909358486,0.946009546892958,0.0989058182716466,0.0671956708488272,0.00430617176969642,0.273484666504219,0.210304151667247,-0.102579342918408
172,942,0.345432463058697,-0.034508815427726,0.946054648175193,0.100746927915027,0.0694364529588328,0.00469018254305931,0.188371211276537,0.268021400439684,-0.0586166059078577
173,943,0.346510153990483,-0.0337653241502738,0.946113222223671,0.102726128283278,0.0737546442836771,0.00517810532813424,0.208932289204465,0.190266096254633,-0.0189317849767455
174,944,0.347611197645823,-0.0330064962341654,0.946169708342939,0.104757004909484,0.0778179814429214,0.00598512726744287,0.144328148678016,0.330501746548336,0.0438891498495074
175,945,0.348701995305722,-0.0321954513286223,0.946226268778344,0.105507184266663,0.08216493989451,0.00755553361477579,0.142101460294772,0.336558030957386,0.0841298922760179
176,946,0.349779235359898,-0.0313420024785807,0.946299532268474,0.104629974062083,0.0868271829833901,0.00980027643083857,0.150077225085248,0.378578202223274,0.148868556909519
177,947,0.350819821134031,-0.0304394646633844,0.946383527042771,0.103168708028505,0.0907816398099461,0.0117127787777138,0.206888700237379,0.364195359969928,0.125835348618841
178,948,0.351838123385573,-0.0294822790645776,0.946472035647067,0.10248589997046,0.0945342366205964,0.0126900329302896,0.114130015077327,0.2591011722204,0.0808040660796215
179,949,0.352838185231225,-0.0284767188538804,0.946559926612547,0.101957686399532,0.0982710771923277,0.0134341028977493,0.0783374140334135,0.22888790394911,0.0777941644541506
180,950,0.353824268255978,-0.0274416606474774,0.946643385919256,0.102259292694528,0.10096374038025,0.0132456742815252,0.027385608613609,0.174786801700424,0.0351250500506087
181,951,0.354797440261607,-0.0263971680466506,0.946725603153693,0.101965543677725,0.103485265007628,0.0139595560920163,0.0890742322351756,0.122767622641186,0.104764451593105
182,952,0.355772018430099,-0.0253661671947182,0.94680299264924,0.102596567661868,0.104755040348202,0.0139607027397519,0.115394216469263,0.101800009998704,0.0629197120287141
183,953,0.356775056501553,-0.0243551832444827,0.946870825173796,0.103796436483892,0.105228429876694,0.014394574343164,0.126777254903456,0.0706554098982417,0.114053714491967
184,954,0.357797891010694,-0.0233834571094227,0.946927054707446,0.104944561086839,0.105527415781531,0.0141614130839831,0.0767685158360243,0.0642768719506312,0.0885537573342291
185,955,0.358838060182379,-0.0224694566946314,0.946967887029274,0.106686770338757,0.104602185071748,0.0134151791820849,0.0739833624171759,0.083241819130823,0.0653410337880482
186,956,0.35986274445798,-0.0216377931091261,0.946991231074792,0.107111738342001,0.102592545816268,0.0126804985674937,0.0429192404607309,0.121665796591783,0.0729687843850497
187,957,0.360855664046689,-0.0208971338974161,0.946997952009737,0.106516640207347,0.0990875596992338,0.0119245404209212,0.0256232155355405,0.184978003193629,0.0759526005550188
188,958,0.361796998312949,-0.0202370629595251,0.946994410170217,0.104662223021759,0.0951470304684774,0.0111829887755471,0.0380251118325982,0.242764113048845,0.075133519428713
189,959,0.36265811974845,-0.0196450512344929,0.946984004021142,0.101091948718256,0.089679560459587,0.0102393130799053,0.0128651086337792,0.290659576595718,0.05875721860895
190,960,0.363398849104871,-0.0191688250393397,0.946973175224744,0.095607404096736,0.0840650065301086,0.00948817313220347,-0.035512670101943,0.281327094800024,0.0669472548969844
191,961,0.364042353808374,-0.0187961269790413,0.946959758582451,0.0903070877004378,0.077639461191044,0.00843404695440585,-0.0818211919505168,0.329443413699954,0.0555396132115651
192,962,0.364655490560383,-0.0184975040560494,0.946953773549584,0.0853542956909091,0.0711418337855732,0.00808267240731672,-0.0569576054383701,0.286510936268122,0.0888571871490222
193,963,0.365429697587611,-0.0183070962362553,0.946957576129943,0.0851376382150276,0.0633677088301043,0.00724073388210909,-0.117996391819486,0.239234333945414,0.0550938758095111
194,964,0.366477912429326,-0.0181892455681168,0.946965745885738,0.0907846244701198,0.0560302631100819,0.00659017235654011,-0.0947698929584288,0.224531078962319,0.0634853047453053
195,965,0.367764119747624,-0.0180244745564613,0.946964912507891,0.100287397479818,0.0511244274692675,0.00565540563214825,-0.161416397077883,0.219206545391859,0.0663132248637784
196,966,0.36917914862619,-0.0177196734766172,0.946949440871156,0.110010612368147,0.0490701765452178,0.00525689490119523,-0.101509542941123,0.189555464198452,0.101849493902371
197,967,0.370635896271803,-0.0172435231120398,0.946923554456242,0.116608959673304,0.0494744532913667,0.00572219252626061,-0.043977572966157,0.26426100707582,0.144342801308134
198,968,0.372120520729124,-0.016572238769589,0.946880489259464,0.124212440127244,0.0533049035831016,0.00524108017427227,-0.0524137856567402,0.224624286679059,0.110770049327613
199,969,0.373590816488347,-0.0157027024098058,0.946822463512335,0.129797375665501,0.0605475636439474,0.00558643243090222,0.015345858567005,0.205300107019336,0.173908521646224
200,970,0.375037789479993,-0.0146710727637149,0.946753789437611,0.134346407637837,0.0678937114574344,0.00574736231313656,0.0343380337687726,0.220777976504941,0.169749282208174
201,971,0.376442421126632,-0.0135216793676303,0.946679566336456,0.136851779583844,0.0745208083335424,0.00623781675790559,0.120334805964768,0.208219427468039,0.173136439595021
202,972,0.377824504009459,-0.0122859578160999,0.946598750564786,0.138721572338978,0.0817096424994715,0.00618870877950711,0.110286589631826,0.193446553326669,0.137730951658305
203,973,0.379196379234598,-0.0109873563883613,0.946513949430952,0.139955968016553,0.0896608481715214,0.00534403006078708,0.153591836329063,0.186362361553186,0.0679810664979297
204,974,0.380552803080939,-0.00960229302526145,0.946405913577744,0.141101697928203,0.098031170266791,0.00333842659690314,0.0842838593068498,0.18783923649492,-0.0238306479047422
205,975,0.381903753916277,-0.00814227261063283,0.946277364901304,0.141598037225041,0.108337852553762,0.000743709899966667,0.148788637817926,0.22551152787286,-0.102698277955829
206,976,0.383247196613026,-0.00661123292991227,0.946129465766278,0.141548812521756,0.118295028928279,-0.00202857784548811,0.117654437835819,0.147431874229112,-0.139718274641858
207,977,0.384576815261697,-0.0050260386968756,0.945964034439848,0.141196692618618,0.126753636935408,-0.00538743737790837,0.112349454198397,0.240492532105145,-0.190931434563538
208,978,0.385885098629295,-0.00338132101359904,0.945781190826265,0.139338135178834,0.136129383944713,-0.0084324251569465,0.105297855405447,0.293491806009542,-0.197263323048211
209,979,0.387167900089264,-0.00167601335247954,0.945582880800015,0.137620678953248,0.144981382436484,-0.0117637486310878,0.126582974826103,0.275660973519267,-0.243148267696972
210,980,0.388427838132099,8.42674196984464e-05,0.945362570162188,0.136351874531727,0.152710157202916,-0.0155875151559302,0.135819920258782,0.294306816727824,-0.299056748109831
211,981,0.389655338046844,0.00187708471519672,0.945127929932875,0.134775877726754,0.16093017503197,-0.0192337442530933,0.143933063506047,0.303793288878697,-0.31289779324654
212,982,0.390877149050792,0.00370948860395129,0.944874885713451,0.13307354382816,0.168877791291781,-0.0232442413700348,0.0917440906881806,0.389207345494347,-0.361918626513386
213,983,0.392079049613027,0.00561435108861652,0.944599374232934,0.13134909921642,0.177456827679269,-0.0272317468076478,0.0470497099081897,0.304304802380127,-0.366542912379359
214,984,0.393257027239114,0.00756936828696059,0.944306994972257,0.129390860989387,0.184084099891697,-0.0303671179852035,0.0929117306338219,0.302379433790866,-0.328186360926096
215,985,0.394415308830739,0.00955250866560064,0.944006128991409,0.127779204721609,0.188727233649326,-0.0324596905718829,0.139539832696659,0.347014690857192,-0.253553288595019
216,986,0.395542020043739,0.0115629063612075,0.94370928633809,0.12507306236157,0.192866654594508,-0.0331128981354394,0.210912098846081,0.359314924142714,-0.173839511695921
217,987,0.396659875328481,0.0135781844734911,0.943419839901308,0.123445543213726,0.196344530879525,-0.0337902719522384,0.224614862538689,0.409342087172804,-0.173965163011394
218,988,0.397786065077043,0.0156101887899294,0.94313481191135,0.123087597237024,0.201261449581897,-0.0340654869794885,0.134346791252636,0.424290868912923,-0.113983568072007
219,989,0.398922279584,0.0176522497209023,0.94285586671418,0.122923857764957,0.205170443906384,-0.0341172790771212,0.141322060872062,0.474288455577686,-0.101624453782249
220,990,0.40007040347926,0.0196890863150178,0.942587761736728,0.12103446536373,0.207263904639238,-0.0338048835715551,0.164681434500684,0.506541647896592,-0.10711069666052
221,991,0.401226159044588,0.0217129950300943,0.942329209801746,0.119059780793755,0.208419740591127,-0.0329659874557023,0.140830228250304,0.519613145630856,-0.0592373580732171
222,992,0.402407140150797,0.0237007725861265,0.942084603294644,0.117190035035358,0.207916803780491,-0.0316066274269768,0.189806948360694,0.565509166589372,-0.0277443297559432
223,993,0.403616056223616,0.0256763487644658,0.941851515207875,0.117269596219309,0.2085668978515,-0.0307063771352815,0.195007804561522,0.502035822136592,-0.0398391768125133
224,994,0.40486964601364,0.0276443326990863,0.941624598038857,0.11929515230748,0.209555399489301,-0.0303594833547562,0.158261137132536,0.457859320259548,-0.0661469220990484
225,995,0.406160732300462,0.0296085918813369,0.941403220750406,0.12258847752957,0.210517432508278,-0.0294097311076577,0.229005606956278,0.458798551377148,-0.0145447728806897
226,996,0.407476246234309,0.0315651647392652,0.94118985332618,0.125881406286728,0.211200282447613,-0.0278683746121383,0.299936241025864,0.414177232217548,0.0350820390745008
227,997,0.40882490232506,0.0335195796025185,0.940978635080875,0.129907046006627,0.211404214677113,-0.0269434550374209,0.283543596891895,0.363920822105619,0.0328391302429623
228,998,0.410207413795378,0.0354497138780282,0.940770113639406,0.133978297648921,0.210749044702671,-0.0250131641402545,0.281918030259843,0.352236724122081,0.157240750135787
229,999,0.411611140240213,0.0373379193856681,0.940578171306739,0.138129516852045,0.209353321322898,-0.0229978155865645,0.384565948130565,0.352079571560591,0.125945534509442
230,1000,0.41303548461092,0.0392037187784513,0.940396775001972,0.142269568012337,0.208384553095742,-0.0220261232487056,0.350221771512486,0.363168107197472,0.0280446465888354
231,1001,0.414510415880245,0.0410590636164511,0.940213092677856,0.146794389465315,0.208833000755731,-0.0219931813656064,0.360574466555804,0.294432405291591,-0.0456463926137427
232,1002,0.416034004505371,0.0429160386445972,0.94001420456372,0.151680867371191,0.209218511440336,-0.0232584901360683,0.34211191066333,0.29165174774794,-0.149885400403652
233,1003,0.417609005456012,0.0447845870592163,0.93979341037584,0.157456182861372,0.2102287087102,-0.024756885498145,0.465374156222224,0.254082189453205,-0.187810118899707
234,1004,0.419227907843262,0.0466875503070221,0.939549604336297,0.163856894388603,0.211945614842721,-0.0266177190653393,0.552567005819039,0.224220947990168,-0.221911251205316
235,1005,0.420877959012808,0.0486322859748915,0.939289878932138,0.170520989835937,0.214430961117153,-0.0278671976777564,0.665033465079717,0.322588116851334,-0.164614955386834
236,1006,0.4225776971181,0.0506520676542208,0.939023857565183,0.177636784151522,0.219423289457015,-0.0291417838289756,0.502715151770238,0.400636995236682,-0.0965015023680422
237,1007,0.424291257062498,0.0527476453931939,0.938753799050072,0.182462895026607,0.225093150333949,-0.028596762989772,0.574481231843007,0.51784626799723,0.0230735212080587
238,1008,0.425991574835568,0.0548941309743958,0.938499502320072,0.184687910698401,0.228377155979091,-0.0241206574075992,0.678513095295874,0.672838379455411,0.343274986793726
239,1009,0.427673756447484,0.0570401222950797,0.938298290382817,0.186183213448827,0.228709424207394,-0.0188863566212193,0.841057576038115,0.766266209705494,0.390472608437891
240,1010,0.429373875624269,0.0592260029284198,0.938130122816284,0.186834869530191,0.231216190386962,-0.0167905471490598,0.549817667009021,0.625474410273753,0.173634941364817
241,1011,0.431125891450842,0.0614333333107558,0.937967582505541,0.187846097448469,0.23450022209163,-0.0160493353299266,0.135270031976364,0.574355542899567,0.147198618990124
242,1012,0.432913162912847,0.063675554003995,0.937830575681081,0.186199090071799,0.236980776561889,-0.0110598239228784,-0.238281903942487,0.422801290649653,0.56996628249065
243,1013,0.434708498245969,0.0659337804782145,0.937762224883415,0.181012030777781,0.235220265420666,-0.00161049403373439,-0.600419969062245,0.256282748261145,0.971395481764236
244,1014,0.436446917155356,0.0681267190972877,0.937804834228231,0.176665012321566,0.223340451063787,0.0133370643314941,0.0273594508767584,0.174871868176992,1.34494546098672
245,1015,0.43814791134231,0.0701901882112547,0.937999546337124,0.175535137476164,0.207941019127552,0.0360450108454127,0.462707454447604,0.487606022506443,1.98811362894806
246,1016,0.439930303233158,0.0722019251305062,0.938370908103767,0.18322410628254,0.198903284258709,0.0496897479192714,0.503307534028573,0.432509591946656,1.25300213746318
247,1017,0.441872591641422,0.0742502978385054,0.938809659530456,0.198669837545034,0.200093813474143,0.0534193442702508,0.469703064239614,0.306544635498366,0.543191746834041
248,1018,0.444011883668455,0.0764338591627399,0.93922261279554,0.218297918531525,0.210967922040733,0.0503302472754024,0.142552967798629,0.104980567600222,0.150967107408516
249,1019,0.446336811311694,0.0788499231548637,0.939562437170937,0.236291304647532,0.224933952715362,0.0429889456962273,0.163908281421383,-0.324446223247538,-0.211901186868031
250,1020,0.447694703344535,0.0808015459811043,0.939826896250325,0.235121069867496,0.228931326037549,0.0358296366913394,0.218940119088502,-0.480669341606442,-0.306244498823272
251,1021,0.450090276383002,0.0835827482421616,0.94000516250446,0.239520085322133,0.239097384274949,0.0297841131277215,0.246256974752691,-0.535078523556908,-0.285577214629111
252,1022,0.452059225757907,0.0862271881057083,0.940124047518704,0.234985533433731,0.244135459311524,0.0259390660321604,0.352382511569832,-0.401020468656744,-0.181893885423671
253,1023,0.454328212306065,0.0891802544473265,0.940225281929678,0.2302459406176,0.250265689241581,0.0259416546325449,0.432437317644265,-0.22182507211162,0.0644003742568056
254,1024,0.45652012262275,0.0922387282307165,0.940343720035016,0.223474897261722,0.256495479085111,0.0274077311535312,0.431436314821751,-0.04337914730742,0.158535877479331
255,1025,0.458782413913048,0.0955633745284107,0.940482021128769,0.220399636902574,0.268648817499405,0.0283504842451429,0.349748981870831,-0.0971110930184968,0.154912600437393
256,1026,0.46103592606793,0.0990945447847544,0.940620705480815,0.221072821996831,0.28338871985325,0.0271849460423775,0.172739341215809,-0.199034693602984,0.0428796324365663
257,1027,0.463300483615288,0.102803203760709,0.940743709824137,0.221188612699422,0.296576684125086,0.024217500337146,0.109767884935418,-0.362215898087666,-0.126299813959342
258,1028,0.465484891111167,0.106564941450789,0.940850940134805,0.215751559013695,0.30545175049665,0.0211911910806565,0.104122102684394,-0.373043393528823,-0.241889022540651
259,1029,0.467542474401907,0.11027172723392,0.940947818803027,0.205000049438002,0.30839410884652,0.0181333053708915,-0.0101036907768738,-0.498087168992368,-0.325863276594589
260,1030,0.469415909082713,0.113828613703407,0.941044940283518,0.193126480213356,0.306843358356238,0.0155104181209339,0.0201025083576743,-0.577290840350691,-0.32660885583853
261,1031,0.471141130073363,0.117240677388403,0.94114393741322,0.18514314409302,0.306965637280899,0.0125012079519001,0.00130204713387153,-0.686910200456362,-0.280930278124368
262,1032,0.472758098460287,0.120542779944776,0.941347887518987,0.180430636227672,0.310642259876069,0.0109006665014213,-0.0745357486774844,-0.72456948321921,-0.147598192659305
263,1033,0.474367377277726,0.123888420067775,0.94163019993876,0.179890454218337,0.316927437207792,0.00922127815501491,-0.206843979371163,-0.664400001331572,-0.100519804430436
264,1034,0.475991180077609,0.127314352207369,0.941921827897325,0.180297370750554,0.323792495528712,0.00669846995996575,-0.231432144103956,-0.66743761616943,-0.178636624406453
265,1035,0.477632572411598,0.1308805637949,0.942208430979182,0.178541544816479,0.32778556586427,0.00530211929597662,-0.204000155718387,-0.665464833803977,-0.161409182098698
266,1036,0.479257820719595,0.134585025043885,0.942485310692003,0.173708941143923,0.330560986853651,0.00570407315805474,-0.226312944310554,-0.69323724507777,-0.0532980053742586
267,1037,0.480837148571126,0.138381601673706,0.943381104513896,0.167123237574416,0.333565719994012,0.00938463632474999,-0.28296042372428,-0.685144336010022,0.0167872256119016
268,1038,0.482385969903651,0.142123661877543,0.943517478321501,0.162258262361274,0.333907089564799,0.00805355084048003,-0.402865427285076,-0.68261290520242,-0.0668401674714133
269,1039,0.483919031247895,0.145717579082572,0.944107210435915,0.158133553325019,0.331902029503152,0.00721168586934662,-0.443149112973548,-0.760096335203285,-0.17425310597087
270,1040,0.485430099015252,0.148967832674675,0.944555287726394,0.152375255826269,0.322342865502511,0.00624041765695068,-0.331448644727688,-0.604767313062554,-0.225044354448645
271,1041,0.486843256245593,0.151099658962198,0.944891375345527,0.142036348638078,0.296433222806966,0.00862116171559985,-0.10204505223759,-0.388414546106809,-0.119765652207517
272,1042,0.488269586775607,0.151880542680049,0.945284170018711,0.129067274001886,0.248683800434265,0.011479116975125,0.0232901614290991,-0.102477108410509,-0.128170174678155
273,1043,0.489666499823012,0.151807959033522,0.94566901177598,0.118812748325048,0.190094553403848,0.0127332830152229,-0.29497638818067,-0.0931980505376185,-0.169725201860906
274,1044,0.491024530513823,0.151408427175836,0.946029753363102,0.114538256594161,0.138023205771045,0.0123720166572408,-0.404843609987018,-0.120718232866248,-0.253583990195428
275,1045,0.492383020791151,0.151054040609429,0.946337946085549,0.113418392387348,0.101115069219532,0.0109743924682222,-0.615118493507917,-0.182306528723448,-0.24141062582854
276,1046,0.493766681802541,0.150917870730371,0.946581443038925,0.114658466379962,0.0782470466982961,0.00818742922099683,-0.875706467964227,-0.249612978267584,-0.24717098862364
277,1047,0.495419437962162,0.150276926495444,0.946944861035686,0.118711236915023,0.0687959593476968,0.00347742966384338,-1.15265139796686,-0.252090547499158,-0.305461614969114
278,1048,0.496864243542286,0.150808361301192,0.947086001696949,0.115730936669656,0.0615025935148393,0.00413677875247721,-0.816794890886397,-0.364048478244787,-0.085956511284235
279,1049,0.498378984546319,0.151532397184563,0.947196008010315,0.119252416661048,0.0566429173221181,0.00365289939637875,-0.981693690516829,-0.417467744855586,-0.15545359543555
280,1050,0.499929932105332,0.15234715147324,0.947294438827883,0.121371058686675,0.0525668654147812,0.00622897463464174,-0.761535236964937,-0.588970672562533,0.0517423087042232
281,1051,0.501506047003111,0.153226876913792,0.947377380228949,0.124279914660795,0.0506781793101316,0.00818686849772649,-0.669114393448292,-0.694707412885299,0.136928150010244
282,1052,0.503089731511628,0.154146190794444,0.947439165209116,0.128590836858831,0.0495027514027046,0.00974750874000126,-0.476297009394856,-0.7290328346268,0.216123646576077
283,1053,0.504672440830561,0.155102505656798,0.947476096728409,0.133424190879035,0.0488709029807616,0.00981788643651951,-0.289599417576943,-0.78948742378961,0.165969420437089
284,1054,0.506239146832561,0.156078756232088,0.947494270791052,0.1365760019077,0.0479808148942207,0.0118493412294077,-0.0715426417895507,-0.819142107932176,0.335032859872859
285,1055,0.507757441494612,0.157079070269325,0.947507875741598,0.135519903608516,0.0485674770956849,0.0146300541948993,-0.143522274841482,-0.737094930564667,0.394023691016174
286,1056,0.509193464728616,0.158080253376501,0.947516880723881,0.131402481297924,0.0497560328150031,0.0168753856883325,-0.183619520605572,-0.641141020492648,0.349798206748468
287,1057,0.510548920468237,0.15910852075745,0.947506632286908,0.127199496459752,0.0534139402202233,0.0162705876102833,-0.324792782654346,-0.72064845741578,0.213129401882024
288,1058,0.511839176609586,0.160162385625428,0.947466718009361,0.123347503629186,0.0597822178263429,0.0140276860575389,-0.513181986983551,-0.798981192818391,0.14610686416757
289,1059,0.513047958820573,0.161241370092068,0.94740505735344,0.117311226512147,0.0673610256995489,0.0121561025282856,-0.580773102005595,-0.633225949964419,0.139662974347642
290,1060,0.514203623423066,0.162399667843318,0.947323997023358,0.110768075538491,0.0733617321259493,0.00957234802433414,-0.591722655071289,-0.501513327212588,0.0387931730369418
291,1061,0.515267415821825,0.163546351183728,0.947224322596087,0.102650028131583,0.0771498253525203,0.00659873726681312,-0.537997800393869,-0.501452201733857,-0.0610917685165599
292,1062,0.516289532142679,0.164712196775421,0.947092036555446,0.0972645195156194,0.0800876839963668,0.00105247957748149,-0.664007354584316,-0.57679398743888,-0.259125513176901
293,1063,0.517297818143428,0.165899413472437,0.946915980505948,0.0942836091657238,0.0829180171878934,-0.0060498805422385,-0.692383667607106,-0.601568182879121,-0.41113035727302
294,1064,0.518326995806667,0.167115447304028,0.946689489763716,0.0944446859914402,0.0857224640041047,-0.0149280955716037,-0.717724775498835,-0.62409032462458,-0.568870152697894
295,1065,0.519392933628498,0.168333438766468,0.946411428188607,0.0965755518447446,0.0876545330823381,-0.0242172956022334,-0.659212264718354,-0.517113472329669,-0.661251016630187
296,1066,0.520471789964114,0.169547876047487,0.946097061037157,0.0976705593396591,0.088803867257725,-0.0318719974891262,-0.443728227062743,-0.459242717318212,-0.634237828830202
297,1067,0.521568424255225,0.170705696816122,0.945768438759442,0.0972043587868736,0.0868781327415728,-0.0368964163555231,-0.299199842888486,-0.324108646397449,-0.531955718977643
298,1068,0.522689813050482,0.171795791377602,0.945436591844862,0.0961070935848892,0.0851561610854559,-0.0392549977834541,-0.258616186340002,-0.154072445654746,-0.364163412918758
299,1069,0.523807161701313,0.172805909804667,0.945122665784557,0.0939045259939326,0.081863652482401,-0.0388554248690774,-0.274165095895772,-0.00891618363190143,-0.170626958938661
300,1070,0.524901715952116,0.173742681064361,0.944844568453121,0.0918496080003133,0.0784209266370697,-0.0365073113870409,-0.22907409130242,0.0612143627914611,-0.00620644554695456
301,1071,0.525978103611886,0.174601971163401,0.944616402740416,0.0892627187415605,0.0751239704704146,-0.0323029609893929,-0.187473631291578,0.127028498451163,0.145313347405377
302,1072,0.527041678707088,0.175371522276708,0.944443997937829,0.0869564303649842,0.071533791628868,-0.0271024186808259,-0.180110801937303,0.191183732453379,0.239359204692919
303,1073,0.528099008831612,0.17604732741056,0.944316176704387,0.0865915274983813,0.0662764305775917,-0.0230402454805657,-0.164356600562008,0.252107261542284,0.171000725938992
304,1074,0.529140677514848,0.176623692547364,0.94421683645512,0.0860899817826215,0.0594106443142149,-0.0198045945252908,-0.122303413110585,0.176316563697417,0.104575748010759
305,1075,0.530164838943686,0.177069576295525,0.944129693142748,0.0864278965799724,0.0503078481304349,-0.0181064847488259,-0.0898805112754326,0.141798459379461,-0.018037632829403
306,1076,0.531130617531587,0.177368188865456,0.944043696641253,0.0852020362441027,0.039219917869951,-0.0166344242984099,0.0298270840101744,0.121156528319788,-0.070811609411105
307,1077,0.531995539688172,0.177505409658187,0.943958866198931,0.081831455840828,0.02615740005239,-0.0147473645684615,0.158290256686,0.193945880642778,-0.0751667084657925
308,1078,0.532753657222561,0.177502015723386,0.94386895987344,0.0784817212456094,0.0141743802193641,-0.0135398950970684,0.248036859945922,0.0234878276777799,-0.0755982928227036
309,1079,0.533421343469656,0.177412026573182,0.943768383190814,0.0754783509597313,0.00492701749398433,-0.0131292507940181,0.245733757083144,-0.0984023529390035,-0.0779979146882466
310,1080,0.533986760220839,0.177225360544461,0.943644636663724,0.0730249409425085,0.000614767005647929,-0.0147685192964079,0.100478162708502,0.00252554798765692,-0.166068612723067
311,1081,0.534453898682619,0.177031968276156,0.943486441453205,0.0695477115952999,-6.18336898870418e-05,-0.0179187972631599,0.0640945858569114,0.090805386022267,-0.275379752214995
312,1082,0.534845775019734,0.176868647872819,0.943300907679231,0.0654787092178151,0.00149866435156376,-0.0204952816816807,0.0271095252638007,0.0561309227678471,-0.144969364626537
313,1083,0.535212609557224,0.176806687189412,0.943095108129079,0.0641774662421224,0.00939222702419793,-0.0234866397111238,0.0352302448875197,0.297850662876351,-0.239386066373405
314,1084,0.535590024203421,0.176871579072354,0.942870888620969,0.0648550306645422,0.0167687446689865,-0.0264793374699994,0.0679401013484447,0.37893818956972,-0.291945126941167
315,1085,0.536032861898467,0.177059990507563,0.942629065871539,0.0685332944263653,0.0228461623998342,-0.0285779221950038,0.211828114740423,0.347322875409406,-0.229243668832626
316,1086,0.536552506541957,0.177352248791742,0.942380974340707,0.0723989246940759,0.0276012305450732,-0.0286202180257193,0.412876324450325,0.320216861301286,-0.0853595739431899
317,1087,0.537168507492619,0.177724509114832,0.942134890016274,0.0772444479719431,0.0315199233068948,-0.0281444101808235,0.382739106499974,0.426385198868403,-0.00755193617398195
318,1088,0.537854886148667,0.178159319260145,0.94189423188188,0.0804516388880045,0.0346246564092415,-0.027322456540215,0.238716626757385,0.187943352389765,0.0413493102952797
319,1089,0.538566047320945,0.17860773473169,0.94165436082602,0.0809388617335303,0.0365166258678007,-0.0268993908815138,0.214688604415357,0.132109148437833,0.0226146111756858
320,1090,0.539285174256656,0.179031946404794,0.941412873558084,0.0786430468334155,0.0353370695063778,-0.0250073119107319,0.207739182982581,0.134981969063658,0.179777259888375
321,1091,0.539990801421253,0.179440829186696,0.941187201491366,0.0737485805389845,0.032500914120361,-0.0224033267293334,0.013988202254966,-0.124444260741079,0.277874616778869
322,1092,0.540685181997198,0.179877073991874,0.940964341703293,0.0688850962266285,0.0304647940918597,-0.0211971677043161,-0.208558445401642,-0.506123563268621,0.19434331712174
323,1093,0.541347212155005,0.180361208893134,0.94074166332928,0.0645486172247937,0.0317163089848435,-0.0182803012773327,-0.267091390473828,-0.447700659347786,0.368900827340666
324,1094,0.541983883643934,0.180898839188087,0.940538183576349,0.0622489853661165,0.033247049153289,-0.0146709800140726,-0.0265217991015083,-0.36865897607198,0.417135093181427
325,1095,0.542628989997459,0.181501162577369,0.940350340970984,0.0627504005406522,0.0369184396940422,-0.0114958466366135,0.142595140293942,-0.313257396265109,0.340407602810579
326,1096,0.543320639296558,0.182194992473823,0.940164642651238,0.0668100359020722,0.0451033523003935,-0.010002587223591,0.131257925394613,-0.0916001917439927,0.191103756823654
327,1097,0.54410273836033,0.182999196572724,0.939968600710523,0.073523712872842,0.0564389002064348,-0.0101498512128315,-0.0461092383900571,-0.0234697119034885,0.0925198407657062
328,1098,0.545014076705896,0.183717150298118,0.940140076777041,0.0789475719275594,0.0609708991233029,-0.00855251455864472,-0.218796657139972,-0.131125414216134,-0.0664402188861109
329,1099,0.545884889484029,0.184383430928914,0.939938142478297,0.0781102210477443,0.0588573680986269,-0.0112752789270941,-0.354675853526236,-0.330384230663357,-0.162702512913609
330,1100,0.546778894091816,0.184989462757287,0.939942742108874,0.073768700838776,0.0553265642308796,-0.0133880231213133,-0.528702765368639,-0.465093182800018,-0.191844688999902
331,1101,0.547671792007666,0.184554930752069,0.939991418224596,0.0705209373418896,0.042155233065749,-0.0146420913539737,-0.597167764932483,-0.464326725340116,-0.151384234722964
332,1102,0.548523024632099,0.185186970854238,0.940014787670026,0.0689126825362988,0.0388500290564128,-0.015857063570353,-0.600360277587862,-0.425975772665393,-0.158903091540313
333,1103,0.549461464100689,0.185384024522432,0.940033366370188,0.0681490379042105,0.0335360670440884,-0.0163438568139238,-0.446061612592019,-0.227310473120137,-0.161214133421705
334,1104,0.550427573178525,0.185804748068067,0.940051048594594,0.0699951897031673,0.0303997489435631,-0.0164827587184083,-0.296312659600558,-0.120291141654526,-0.148893449689349
335,1105,0.551449132944643,0.186222430947779,0.940069868470981,0.0743816255385222,0.0298501176326245,-0.0163810243334602,-0.191143985485799,-0.144765140964385,-0.116549863935574
336,1106,0.552525370036571,0.186712772442509,0.940096040196369,0.0789431911264436,0.0295571005288106,-0.015096446435713,-0.165333319115075,-0.0408619183954692,-0.0301109980833295
337,1107,0.55362658699842,0.187188536497209,0.940143796688527,0.0815516543688393,0.027862461956549,-0.0116992289613161,-0.0880539006719569,0.110109698898209,0.115836601870117
338,1108,0.554741827840629,0.187670872446853,0.940224613330223,0.0835199034512058,0.0269717647725643,-0.00711302080300369,-0.023798899248143,0.138522693943709,0.233993021397654
339,1109,0.55590765409943,0.188167156523641,0.940318055162958,0.0888560145192113,0.0304433878743663,-0.00403191576218143,-0.0300339784420121,0.0843200742022446,0.180632120392622
340,1110,0.557146557235185,0.188657663165749,0.940436360527472,0.0968650307668791,0.0354225101856434,-0.00241927050512779,-0.127015755882603,0.0154108336160728,0.145649012850947
341,1111,0.558435085764017,0.189133402063257,0.940556225377341,0.104036626198735,0.0391344447963905,-0.00103566649220001,-0.177738104904751,-0.0817700556465109,0.180171452079829
342,1112,0.559778000844793,0.189532778731273,0.940674680414038,0.111452439761305,0.0380729757337646,0.000277518726630803,-0.156472186040826,-0.0186947775575487,0.191796573863379
343,1113,0.561153307491961,0.189850090259455,0.940789870413357,0.117280037562611,0.0360223783443586,0.00129026951785562,-0.154334490710859,-0.0625999519518866,0.16476815047824
344,1114,0.562546894253755,0.190075202339589,0.940899123439309,0.122425026774428,0.0323049124123998,0.0021672237203423,-0.131638542824768,-0.0377212429672896,0.157000758186414
345,1115,0.563942646120636,0.190220223136748,0.941001839750318,0.125255748562936,0.0278173708868637,0.0037310254958313,-0.128685204961149,-0.0848773798491011,0.213126237353689
346,1116,0.565299622569475,0.190286428195094,0.941103134633261,0.125814517701105,0.0211530411573797,0.0053083596165912,-0.0170607114325569,-0.0861885134140987,0.201319000200732
347,1117,0.56662847469038,0.190301311166441,0.94119804340747,0.126857373374962,0.0157525166071571,0.00613904580049691,0.0533528449450897,-0.197873544835991,0.165617825209486
348,1118,0.567948380375106,0.190316859468864,0.941285642502364,0.128997837209777,0.014004799839892,0.00537408574204489,-0.0100829377765005,-0.273681382176292,0.0584427474730333
349,1119,0.569270633467159,0.19040028429022,0.941331841375617,0.133087273318814,0.0144404432973901,0.00358646278920099,-0.0649642900835374,-0.359530755087758,-0.000190761991774676
350,1120,0.570614179075508,0.190571677008311,0.94136731734299,0.136814648483925,0.0158209212524263,0.00153428193016771,-0.0379185014957134,-0.408958515846673,0.00100490921912257
351,1121,0.571936869852497,0.190854013776246,0.941407708396286,0.139150659913093,0.0198634456976413,0.00100084618525683,0.0241737915523075,-0.399920645337244,0.0732295377143686
352,1122,0.57325618332196,0.191243813841568,0.941435423405778,0.141083169950178,0.0242099272835471,0.000972682364815478,0.144258240873861,-0.342167536153504,0.117516570081825
353,1123,0.574584826051678,0.191747099215764,0.941487695847779,0.143054395132891,0.0308579638120255,0.00142880098773244,0.218106308880155,-0.392823857840847,0.130297921111893
354,1124,0.575912386032433,0.192353227043896,0.941519423572306,0.144448729856862,0.0385322954453489,0.00215916610780571,0.278217541055456,-0.348629324856604,0.156553953123754
355,1125,0.577297424129806,0.192845439764019,0.941570681012803,0.145844259583022,0.0444694838445649,0.00341434898202803,0.273542855757529,-0.351534786862314,0.193931263066634
356,1126,0.578696266294509,0.193486124797264,0.941611844955601,0.147796478595223,0.0503623588744312,0.0036454312881145,0.19669091758581,-0.33307715060231,0.137033704442629
357,1127,0.580170411870325,0.194100621204563,0.94163828891784,0.150215461104637,0.0529350560044519,0.0038848475255803,0.0514837716571559,-0.275072496999881,0.160055998252269
358,1128,0.581641983125434,0.194729393738577,0.941661852004452,0.149739477673349,0.0505810940397678,0.00567889846613463,0.101734735472142,-0.158063245266843,0.219535849057552
359,1129,0.583127649410577,0.195290614897809,0.941688159380982,0.149017653732859,0.0431280756551772,0.00791564695758598,0.173941302820726,-0.00772765427677968,0.216990020984368
360,1130,0.584589570190015,0.195815521300786,0.941718483662395,0.148007044142049,0.0359438586808934,0.00966641453150417,0.208509435721275,0.0193433145954418,0.170243627008127
361,1131,0.586029290211546,0.196312125186091,0.941746010961033,0.147176884737197,0.0321127258617699,0.0104684518325118,0.16183936127609,0.0436263235103389,0.124353761624143
362,1132,0.587460332858897,0.196828058156944,0.9417600590535,0.148183809612202,0.0342815088423752,0.00969075232786364,0.084959425223233,0.0766360181412885,0.058694298384132
363,1133,0.588917984374388,0.197398463634275,0.941750500694382,0.15097045396433,0.0414869563222156,0.00786201737249121,0.00420386631688373,0.13493268132261,0.0278228031986099
364,1134,0.590407832054884,0.19800568986823,0.941721475651952,0.153561757623071,0.0482882444215302,0.00640489154461306,-0.0115357499569649,0.239823665682262,0.0531411536553557
365,1135,0.59190060630761,0.198617516162823,0.941689624572779,0.153315323292431,0.0530178614511734,0.00620209992830865,0.083864186182418,0.387371166818114,0.0799654748751649
366,1136,0.593406147669238,0.199179050414863,0.941660192069941,0.152767075895961,0.0535894654759249,0.005951766316764,0.109142342119899,0.360690011163366,0.0387546580107688
367,1137,0.59493021898437,0.199653206132595,0.941630635764636,0.153036556535502,0.0519251158985184,0.00517978234121274,0.185014760741173,0.365834927274547,-0.0356013809851536
368,1138,0.596470440953141,0.200034910715951,0.941598594089732,0.153004569561975,0.0487662712517874,0.00464901286196522,0.19398292988322,0.289224026145909,-0.0328731359642821
369,1139,0.598009251838721,0.200333516986512,0.941564520651789,0.152550019171798,0.0450114119396631,0.00387558310454216,0.164933693507241,0.302338294484575,-0.0557717473550075
370,1140,0.599532367783752,0.200608765180041,0.941521836939934,0.150943676155554,0.0403310866403961,0.00271351698204168,0.158347811490452,0.213972460584862,-0.101535571636816
371,1141,0.601005501156001,0.200796165623267,0.941480658583555,0.148560075118877,0.0348737753144644,0.00211790678732598,0.209798819732763,0.205504132035835,-0.0935613260986746
372,1142,0.602437293905712,0.2009589847746,0.941438895105918,0.145977087842435,0.029892572163437,0.00129144895156513,0.211596990867214,0.155231036221739,-0.107353672295986
373,1143,0.603819907982434,0.201127792767629,0.941484663861132,0.142829976330801,0.0254653584688398,0.00151191375563213,0.193527399856504,0.100598887698726,-0.0733015104555999
374,1144,0.605155399517946,0.201300252925727,0.941577798064228,0.140655570737399,0.0243796409828728,0.00153687311447102,0.228804617019486,0.128251230222384,-0.0777515171780986
375,1145,0.606467838088264,0.201543118801573,0.941679552147384,0.139080543692253,0.0257934383758541,0.00226511916983285,0.196716068079106,0.131849643254108,-0.000884880866117537
376,1146,0.607764077927906,0.201848466741425,0.941787877313088,0.138480489959542,0.0285429465157552,0.00245470735924511,0.150674326628226,0.141676804467943,-0.0184214795266574
377,1147,0.609048719157341,0.20221636167779,0.941904975013507,0.13748077534611,0.031171210534936,0.00331919810854516,0.153162117542363,0.118223066968033,0.0203246531313161
378,1148,0.610326732297399,0.202622296874906,0.9420318172798,0.136541652402855,0.0336228644275059,0.0041884261153009,0.131699576418966,0.132029528292004,0.0226098890850118
379,1149,0.611614023888129,0.203060403810717,0.942162608691542,0.136823503005893,0.0360413231393248,0.00447710060925674,0.0827618011024708,0.0542504195958648,0.0079267114653174
380,1150,0.612934871012575,0.203522875827398,0.942293202142023,0.138368671299137,0.0384555517752739,0.00397784182686422,0.0425488451735632,0.113584314795589,-0.040503447133078
381,1151,0.614270303020471,0.20400214786448,0.942427383216488,0.138413292754217,0.0393563848538106,0.00458013757611714,0.0877198442578603,0.111875314662363,-0.00743471728677839
382,1152,0.615634084266443,0.20451254939137,0.942564678968187,0.139479988474941,0.0419118190987784,0.00448033851472929,0.0945424724140684,0.226673676085767,-0.0570625692912623
383,1153,0.617009212188421,0.205058916295495,0.942709056316498,0.139190684095334,0.044326010118723,0.00489087357298959,0.157848087047244,0.244595308958913,-0.0712016889265643
384,1154,0.618382449600002,0.205634257450367,0.942850946752321,0.139149589496431,0.04723380941871,0.00433680033451552,0.112700789916774,0.286973559090263,-0.140893180617335
385,1155,0.619738810767422,0.206259007674443,0.94298809991925,0.137927151288434,0.0512360092897712,0.0036822551850289,0.0793927461528567,0.286100086113149,-0.165098694421203
386,1156,0.621049343506694,0.206919487877796,0.943122793728698,0.135758395138232,0.055195069026768,0.0028037803822398,0.0726770034353688,0.287061750854181,-0.206559055241568
387,1157,0.62230966858621,0.207602510891014,0.943252922823809,0.132954346784485,0.0585141224161939,0.00153482759902406,0.075915925069387,0.24089268776581,-0.255102960437225
388,1158,0.623522190785168,0.20830789658457,0.943374097836169,0.13024420375433,0.0624878286888362,-0.000120313367516063,0.036901147180724,0.22900517012817,-0.277188250149544
389,1159,0.624676517175214,0.209041282733061,0.94348657364043,0.126300107189229,0.0671098229738916,-0.00173635534696484,-0.0132255443129607,0.175759344924171,-0.281787304150129
390,1160,0.625773298361268,0.209831438210598,0.943590983886863,0.120886528543334,0.0714514564499465,-0.00235453743289463,-0.0088937845956637,0.262489348732645,-0.219496438314839
391,1161,0.626809182472676,0.21058670752204,0.943701376680664,0.115031496902484,0.0745470469811,-0.00179861189653599,-0.0136996943225823,0.287481460617555,-0.134877736990555
392,1162,0.627814138877465,0.211351217001473,0.943820385476787,0.108912050533235,0.0781642094283859,-0.00037213816531956,0.0189940880264409,0.279758185306095,-0.068413831930887
393,1163,0.62880107467558,0.212138500300452,0.943947227797604,0.103641721686946,0.0815281424669414,0.00128338449848627,-0.03235850286253,0.300372201620966,-0.0217456007949758
394,1164,0.629783422188233,0.212960516139272,0.944079386518413,0.0995773477133043,0.0852781808071224,0.00307216533654969,-0.0377201163419987,0.334285621572383,0.00997922822881086
395,1165,0.630769064778983,0.213840276578024,0.944211711711868,0.0967471357613049,0.0898797380144267,0.00430679185957886,-0.0784546526146733,0.336110528704727,-0.00201951010777294
396,1166,0.631764473069788,0.214788199848761,0.94433633986565,0.0954801312261209,0.0951197573892497,0.00477902273595597,-0.16122668973338,0.337446352967992,-0.01940997923723
397,1167,0.632780362280687,0.215815842205737,0.944448347665168,0.0958728322192761,0.101505181453812,0.00483791995592097,-0.102352226317968,0.333917138449028,-0.0288404607971651
398,1168,0.633821199286913,0.216921957858577,0.944548789784765,0.0962272823960145,0.108018108733958,0.00540414698402897,-0.0793153805632335,0.340655402422129,0.0161528620401678
399,1169,0.634869017114938,0.218094891229556,0.944643160351468,0.0960530056420077,0.113655863239141,0.0066090734159525,-0.115150310566469,0.36724055886423,0.0753255067737798
400,1170,0.635932532048411,0.219335165601696,0.944731993718493,0.0963362103466224,0.119546583062611,0.00756946004015249,-0.119590704014294,0.310994015075104,0.0828570657018639
401,1171,0.637010993387367,0.220612366518892,0.944813313026618,0.0965294006844749,0.124461878679043,0.008404565458741,-0.143453265283318,0.30764712493283,0.0849212815399139
402,1172,0.638103402567056,0.221905701080106,0.944884621128688,0.0966147600589544,0.128432738698161,0.00951852059166683,-0.0937353670423157,0.313850335800385,0.108172421580785
403,1173,0.639201552497656,0.223193255172925,0.944938802553444,0.0976140166380693,0.131077167666375,0.0100282770517237,-0.0789067805179621,0.309215829521901,0.0993233699851868
404,1174,0.640295244952104,0.224461452127327,0.944961188947129,0.0997795949189655,0.133659920130783,0.00890138402934754,-0.0746504038199939,0.266981512924393,0.0288643944975814
405,1175,0.641367937495717,0.225651396652658,0.944951795897717,0.101482083766606,0.134198063216161,0.0076524987680423,-0.00045590690894058,0.240630941215254,0.0395416144202293
406,1176,0.642413568662117,0.226700228097629,0.944926338737207,0.103367047863157,0.132142513508694,0.00621824965091178,0.0199383262355996,0.243124299395552,0.0335245459581159
407,1177,0.643491985783091,0.227575337570025,0.944898470673657,0.105252112245407,0.126981928712643,0.00541580580635779,0.0377903813604025,0.299005302332846,0.0659237337417823
408,1178,0.644703142719028,0.228194798231465,0.94488134570211,0.109137549588335,0.117931471383902,0.00555328234741261,0.0808906666692912,0.289807898652819,0.113704110675806
409,1179,0.646109127549237,0.228568756044944,0.94487081836727,0.114881450372659,0.104704325178247,0.00608853464776213,0.02913426445423,0.274938623935112,0.14014074928846
410,1180,0.647620585046876,0.228753478141659,0.944872373117772,0.121870513366041,0.091432096728903,0.00712715146093471,0.0114646070681857,0.281019461081022,0.189703555874219
411,1181,0.649214645162227,0.228917449409149,0.944871837623013,0.129788376118407,0.0800328442045493,0.00788641250310919,-0.00805103408251316,0.24241307024048,0.193717561600517
412,1182,0.650839160035215,0.22916172878426,0.944863936788615,0.137007372421923,0.07179131462484,0.00886527328289963,0.0286643618112206,0.332109888024177,0.222217958133742
413,1183,0.652496578328836,0.229539783019658,0.944849742163737,0.143698273722817,0.0678237968904489,0.0100736236758634,0.0413381818055606,0.30697118925653,0.266349205191012
414,1184,0.654153076303944,0.23004966027182,0.944837430170393,0.148434872909106,0.0655399768599527,0.0117788850768623,0.101178008511028,0.349885515866788,0.282157651992586
415,1185,0.655827042927953,0.230683667338783,0.944821612896847,0.153353394895655,0.0664833418819261,0.0122647985876259,0.099913387757219,0.395370673430361,0.204384412569289
416,1186,0.65752056605482,0.231457589652562,0.944791594826267,0.158189844442575,0.0709498197207241,0.0115822356645043,0.0434420538476828,0.266717960128674,0.145372193673289
417,1187,0.659226764109221,0.232330699706099,0.944748773678026,0.161909816110008,0.0760691819730985,0.0112459373872129,0.102880761906865,0.301050947745574,0.156577074510833
418,1188,0.660937365269089,0.233294102572617,0.944698011304623,0.165018587654637,0.0823387922726949,0.0112883467792485,0.17763620990463,0.349980504950963,0.171789254199559
419,1189,0.662627496593749,0.234369052032223,0.944643766091995,0.166508593073047,0.0911292389909355,0.0117393698830593,0.196276287025736,0.375655361227619,0.195075155988854
420,1190,0.664286593244934,0.235573784177117,0.944580528971437,0.168366977540281,0.102762796526677,0.0115591061592903,0.233780223907765,0.378826992817779,0.169986474270968
421,1191,0.665900618159591,0.236894075677524,0.944504010655701,0.169473709914784,0.112504019052693,0.0103472301994748,0.232601485052913,0.322158684988327,0.0786632360155018
422,1192,0.667472122173853,0.23829437904694,0.9444049363973,0.171074244993746,0.119043923413802,0.00731972734446406,0.237196425632146,0.278411616327579,-0.0680528539454789
423,1193,0.668984642992882,0.239728916344298,0.944286106336115,0.170338700668823,0.121404948060386,0.00438675403235559,0.219383322661272,0.178257353663008,-0.122390665114152
424,1194,0.67043205267712,0.2411570172329,0.944154482035533,0.167642375990969,0.119851615497336,0.00113583588889154,0.182128247170384,0.128408707837818,-0.19957006809948
425,1195,0.671833823523202,0.242587453328119,0.944008868401848,0.165603380781197,0.120155862279184,-0.00265863974557125,0.197947820779123,0.0966300816602906,-0.250922537510219
426,1196,0.673227697329373,0.244071970364185,0.943839501065125,0.165462761426637,0.125444429830324,-0.00743832059758264,0.0881215475560867,0.0563187427281346,-0.276963845802968
427,1197,0.674615311254001,0.245625789164877,0.943649045485034,0.166080687813835,0.132843704059877,-0.0115302366635967,0.110429329122243,0.172642796982111,-0.230749535200662
428,1198,0.675991776700646,0.247233602863632,0.943446885819547,0.165696432842293,0.139525899516927,-0.014283946522591,0.137001619889519,0.289450366544988,-0.157082547449636
429,1199,0.677346932805031,0.248883704234916,0.943247238627885,0.163730375571532,0.14411448942131,-0.0156591865570714,0.203758015681852,0.250569877423536,-0.100604298183318
430,1200,0.678670680379012,0.250600641980575,0.943049288095819,0.160237216664495,0.148678100328049,-0.0163917819075713,0.151628053976585,0.276760530858203,-0.0627124586010627
431,1201,0.679948478566422,0.252323871697559,0.94286460991401,0.156341427979417,0.154436099722275,-0.0172719193436195,0.129823489398289,0.284699617854809,-0.0914886547029229
432,1202,0.681211100143436,0.254102948783479,0.942677142364835,0.151855277359367,0.162711266603803,-0.0193725013468262,0.0532595572371663,0.253446190041082,-0.195616906048274
433,1203,0.682446837946781,0.255947141740433,0.942477566407198,0.146391881904471,0.1710225033314,-0.0218634106428814,-0.063176428447148,0.241989910048787,-0.247136992654651
434,1204,0.683640783762861,0.257824429351459,0.942268092524755,0.13952378426889,0.17787898705413,-0.0234168901940556,-0.0621103270657356,0.326807540029224,-0.225265603995566
435,1205,0.68476759851806,0.259697883240812,0.942062365069229,0.130266758642506,0.180867280822256,-0.0236475467892061,-0.0243834024323869,0.373227460532026,-0.193559292655535
436,1206,0.6858394954156,0.261556734489807,0.941863988294001,0.121746726232734,0.182150719257411,-0.0241789379079761,-0.0620385722286401,0.352755352909413,-0.227189168437086
437,1207,0.686862255664855,0.263402111271159,0.941674825442074,0.113524375310052,0.182955318242634,-0.0249514268063701,0.00546314353169823,0.346830603767236,-0.284215604430629
438,1208,0.68788431268762,0.265261342911845,0.941478530319999,0.108850303545,0.185432415266475,-0.027671439397689,-0.111885072093321,0.28492136397208,-0.375209526071943
439,1209,0.688908008892967,0.267133903225008,0.941272989126603,0.104584465954688,0.188047716046928,-0.0302353299959986,-0.175975848739325,0.278867527358225,-0.377122728776207
440,1210,0.689933326802359,0.269018278824917,0.94105965649779,0.100459217793303,0.190668958915412,-0.0326060038959198,-0.168689560266636,0.30627052634939,-0.385756595306885
441,1211,0.690945446303796,0.270901544890033,0.940849758620494,0.0956443155061248,0.19189144807404,-0.0331561484424903,-0.104099142722302,0.356012083004599,-0.294941611676291
442,1212,0.691938814288668,0.272785033115364,0.940647349492302,0.0909584181975271,0.193294012113834,-0.0335217901804979,-0.136071899329283,0.349930764233681,-0.276717781418671
443,1213,0.692930100509213,0.274672694886252,0.94044972613299,0.0887108202870771,0.195434848267917,-0.033535172664796,-0.14858070910865,0.337304356018969,-0.209310571928615
444,1214,0.693917253037366,0.276586679775,0.940258796460069,0.0882396455289863,0.198689914532685,-0.0330565403757531,-0.108919372177981,0.269059526058466,-0.12941908160569
445,1215,0.694914462361597,0.27849800225303,0.940080052215293,0.0895148945857389,0.199121760260338,-0.0316762727479512,-0.00316128831749112,0.258036217897446,-0.0450220543312828
446,1216,0.695904041678049,0.280405394146019,0.939922169551652,0.0899611722570909,0.199755429425783,-0.0293245353993747,0.12276173585487,0.220341801785832,0.00839430573679043
447,1217,0.696914654993631,0.282322157282921,0.939776401973151,0.092683279446088,0.201346413020166,-0.027960476308638,0.0127492954353417,0.207381252799974,0.0104055502141082
448,1218,0.697921170790994,0.284248080468117,0.939641080825834,0.0953187685286324,0.201834182884775,-0.026242676902667,0.055721990506418,0.18420841009676,0.0340208308801165
449,1219,0.698919163775884,0.286170330862398,0.939513423884248,0.09744701711964,0.200744539270887,-0.0247874633551717,0.0654833567963528,0.141216286775871,0.0122502242023065
450,1220,0.699889073009372,0.288100715001968,0.939384259072506,0.097907776717848,0.197596522177002,-0.0237441992727618,0.100745326125391,0.0450697433252387,-0.00619572479608723
451,1221,0.700809359010274,0.289976214919112,0.939271557053911,0.0966276335284166,0.193631509000581,-0.0209132317122885,0.154616072707798,0.0949667043146139,0.123838582437358
452,1222,0.701725781141428,0.291838001787779,0.939176984945509,0.0971284462632841,0.191189224985445,-0.0191723473260502,0.151721440286939,0.140568612438433,0.0351644615930011
453,1223,0.702627300217634,0.293719709687787,0.939088978287154,0.0970365053261304,0.191037312384906,-0.0178164988237307,0.0927137542682039,0.182440317029363,0.00650955866883146
454,1224,0.703521204794893,0.295605320332323,0.939007639809594,0.0968868052195416,0.192257755614913,-0.0162354304977655,0.10561826477986,0.258947348420272,0.0333550647986749
455,1225,0.704417844355775,0.297523687345358,0.938925855746765,0.0982601548409567,0.195194208295316,-0.0155643893147725,0.110729626053374,0.304280709661738,-0.0065376570885544
456,1226,0.705334859691856,0.299471827261875,0.938839615190721,0.100599018274078,0.199627225919565,-0.0155022341759679,0.194186419025588,0.320095898955935,-0.0597510742475404
457,1227,0.70628132914827,0.301461155047968,0.938748537580532,0.103165086012405,0.204900014704655,-0.0153882717464443,0.189364716381803,0.313059741411959,-0.0309094152580493
458,1228,0.707295633242055,0.303510280992546,0.93864680020807,0.10705257882037,0.211344162226544,-0.0166260166580637,0.0431208563742832,0.310595651456467,-0.0931547102389474
459,1229,0.708337435335131,0.30559508754936,0.938536840412076,0.108710924611416,0.215152880074905,-0.0142691876122114,0.148302133512245,0.34095700209742,0.161589140561026
460,1230,0.709382739411176,0.307687954728324,0.938450662098803,0.109939636646529,0.215942721952514,-0.0102752241457313,0.364408100673075,0.45379847119317,0.278880811166713
461,1231,0.710442913752718,0.309817823205655,0.938385058933329,0.111409348912612,0.218092433261356,-0.00897802738229675,0.338440993919775,0.416056201843506,0.0791529980701187
462,1232,0.711265483390132,0.312080007519818,0.93843051702114,0.105872615373925,0.224343150534148,-0.00833261378995765,0.0873264566706979,0.383578350360051,-0.0729790865987494
463,1233,0.71268520750638,0.314027271931784,0.938337765332782,0.111231170186597,0.228208447360408,-0.0104217465515436,-0.0951216207381676,0.315558347508766,-0.0596297414546197
464,1234,0.713382249193279,0.316675928258151,0.938233743784295,0.107026825078615,0.236993915077527,-0.0100600776569446,-0.146055284015021,0.332703659496158,0.123518375052524
465,1235,0.714446560462798,0.319254993745324,0.938165472092071,0.104145717160504,0.24230880146764,-0.00527792092773563,-0.123728952449552,0.35412908584929,0.416467872639374
466,1236,0.715545785173722,0.321955500765674,0.938185205397198,0.103117751441615,0.244879765973142,0.0045919314790043,-0.111590189596874,0.314465177704473,0.82337088573501
467,1237,0.716784107102275,0.324695037929387,0.939202385095997,0.104666007424299,0.247373150481064,0.0211930951532264,-0.325274726120073,0.218757415654915,1.14767848819752
468,1238,0.718158159141483,0.327404602150857,0.939359910384917,0.11191341446535,0.248155074691722,0.0353382191171563,-0.0556990710025811,0.264500188677602,1.36806543767208
469,1239,0.719578584845976,0.329977203361332,0.939594048047129,0.120202239208486,0.246698852271759,0.0514857501625087,0.354352247580546,0.489738770404441,1.55937364620904
470,1240,0.720913569037247,0.332302677250004,0.939912457651689,0.132213724927447,0.244485505469207,0.0583265160858997,0.531202869666243,0.362009927190187,0.85347566270938
471,1241,0.722238273523535,0.334604911481151,0.940944944962383,0.143317354198212,0.248363087376629,0.0605530034418917,0.346882383840625,0.306759347357269,0.318959985798865
472,1242,0.723184987802684,0.336853794064913,0.942043457826911,0.145476284839436,0.251971394662345,0.0580115118923417,0.201987336355774,0.0310395409585068,-0.0667268868744288
473,1243,0.72417860639963,0.339299007371626,0.942910942245748,0.141962892962195,0.255467189226104,0.0529435695808521,0.296332294683412,-0.236676185157764,-0.318087704862117
474,1244,0.725117435760502,0.341750780602589,0.943587714666212,0.137331516437579,0.258758809569536,0.044091637765836,0.16202570214105,-0.487729456030508,-0.553736698318319
475,1245,0.726209067967284,0.344347818638121,0.944107829018998,0.134405279870243,0.262502568625875,0.034261243992998,-0.0238096859009445,-0.558280237835806,-0.623413185781584
476,1246,0.727443103166002,0.347061600668906,0.944510791195563,0.132202340595555,0.265791313881487,0.0256582222443724,-0.0639456460926098,-0.441141657742916,-0.586445704776437
477,1247,0.728799317935581,0.349888998773612,0.944841569114958,0.129649535020193,0.264719963533991,0.0206453042159385,0.0198025830679609,-0.257919949512892,-0.419475363211972
478,1248,0.730182642865455,0.352796967999142,0.945088681518558,0.125736171657845,0.262640912134089,0.0204821623181888,0.172268150379561,-0.0325985287065219,-0.16518887562741
479,1249,0.731587307882171,0.355779100144018,0.945393032446687,0.12391296285623,0.259771215786931,0.0204290489053999,0.238596870964448,-0.139767986904531,-0.0955408700229431
480,1250,0.733003416848827,0.358833360091798,0.945683364264568,0.127019787179956,0.26301731224241,0.0219897080420693,0.213188316223588,-0.0626554575830557,0.157646178439605
481,1251,0.734412395514861,0.361970424771409,0.945962738900964,0.131386029681436,0.268860804394025,0.0235328365889832,0.206745455959596,-0.140246321657653,0.232326704494544
482,1252,0.735799928967367,0.365129809912129,0.946231179174932,0.133296337758981,0.275623194082244,0.0252384732049074,0.200165066155592,-0.250254282721194,0.257245703544823
483,1253,0.737151597796018,0.368253193392709,0.946486824017566,0.133762750966998,0.281531741788413,0.0262699048148631,0.181799920891397,-0.352874726183664,0.231362166765116
484,1254,0.738475076458789,0.371273084791607,0.946729558109144,0.132310872395295,0.283549030774296,0.0270536796852552,0.124404882679681,-0.528844637630222,0.219505785291649
485,1255,0.739781869168806,0.374125120920235,0.946957551910131,0.130755183244147,0.280319753022324,0.0267235686941847,0.0813816254176899,-0.537918627784131,0.128462596743126
486,1256,0.741080785314429,0.37680749614206,0.947174463258096,0.129881364848959,0.274139517432964,0.0254669460383817,0.0526502409774703,-0.528050643710251,0.0233983618999402
487,1257,0.74240737082283,0.379406244331114,0.947371226419674,0.130308462292888,0.268606745991252,0.0230489977583077,0.0221798786779547,-0.507265871833893,-0.0656507969673859
488,1258,0.743776080853737,0.3819971462896,0.947535039423798,0.133715275059648,0.264415216893908,0.0187207619970892,-0.0681984113560335,-0.549137075539337,-0.185087877017734
489,1259,0.745177986056645,0.384669522139511,0.947659040595885,0.136884235654196,0.262825479477757,0.0135955431234874,-0.105291342264324,-0.61959369663471,-0.278459580353006
490,1260,0.746592460212147,0.387469477416175,0.947738070508438,0.138661018051953,0.2637993890764,0.00860719845042153,-0.0690103899174185,-0.668044298939143,-0.305539755211709
491,1261,0.747961821149917,0.390407988047792,0.947789777358028,0.138265386043931,0.265168202474859,0.00459950584940978,-0.0568792780004507,-0.753445085306405,-0.283000941386277
492,1262,0.749290642368845,0.393455115668233,0.947872724217264,0.135261263513588,0.266656648225298,0.00172468596497245,-0.0758821674798415,-0.675974639277361,-0.318976300000222
493,1263,0.750548403698489,0.396569777628417,0.947926688439992,0.129582664995945,0.266967322509079,-0.000677328778559994,-0.0715512546375315,-0.733686021746557,-0.339068409513485
494,1264,0.751743311096418,0.39967951350029,0.947958843748468,0.122944531332454,0.265519980251055,-0.00299186924463636,-0.213416428063398,-0.697256729007042,-0.336993046040222
495,1265,0.752879539911504,0.402745421226904,0.94797174319045,0.117341633634823,0.263440475936689,-0.00480064095749495,-0.286678071255452,-0.633898626238956,-0.275739126402458
496,1266,0.753958531346419,0.405775649214895,0.94796985177883,0.111984412557855,0.262770255732794,-0.00598123495327043,-0.380079047568275,-0.591786296188547,-0.186342607920411
497,1267,0.754979711154943,0.408779276845615,0.947957131137371,0.107149153535765,0.262835760600466,-0.00588797520837479,-0.471254340208357,-0.475337789946504,-0.0411776401503456
498,1268,0.755945280971251,0.411797216941437,0.947936698344116,0.102643951739701,0.2644523169468,-0.0047389227425704,-0.494646409409765,-0.38294060639153,0.0879740378277741
499,1269,0.756865014184844,0.41484081434071,0.947909113869515,0.0969914918143866,0.266670455569504,-0.00305482415728953,-0.524841097271466,-0.26698018961856,0.14744656306732
500,1270,0.757774235553986,0.417914375606113,0.947859325972197,0.0926247690264837,0.269460707639557,-0.00261850144743093,-0.570973951058119,-0.2222788945559,0.102406426581227
501,1271,0.758664063148678,0.421003111253684,0.94777463121746,0.0884250192562061,0.271487737430797,-0.00323779065720597,-0.527983903779152,-0.196311544687784,0.0333635736513908
502,1272,0.759517140358928,0.424058013316032,0.947653658191708,0.0824046113249669,0.271597539954862,-0.00432772504406095,-0.524098486555392,-0.274079176038784,-0.0192283282866845
503,1273,0.760291053999236,0.42701720332377,0.947499825654844,0.0746683484836086,0.268305809568274,-0.00536760598287274,-0.488121704963414,-0.269386441620609,-0.0400090709124486
504,1274,0.760955043279639,0.429850626159536,0.947319796460625,0.0656005344612041,0.263841094122056,-0.00665156276250829,-0.418662388652934,-0.3063750333148,-0.0494158177071004
505,1275,0.761528419180248,0.432467314071318,0.947137144065079,0.0572332364328764,0.255839318389874,-0.00760607522990353,-0.36839234352461,-0.388472032081883,-0.0273082457079852
506,1276,0.762091787419059,0.434655161880769,0.946962990965898,0.0521678594343131,0.241965939688684,-0.00889759995448065,-0.359832107240343,-0.46802074174973,-0.0187627035231252
507,1277,0.76283610763924,0.435702183054035,0.946810953702184,0.0543890207451574,0.211174163718626,-0.00999426246952424,-0.396170801410997,-0.536505376317239,0.0553213432084548
508,1278,0.763886831145381,0.435147762896336,0.946707044676306,0.0622276022776793,0.158884867795773,-0.00858437402422602,-0.315981898891211,-0.495179018838508,0.210728496478128
509,1279,0.765215680219841,0.433405445429308,0.946657247996899,0.0735326695030125,0.0953609142634961,-0.00554515491557533,-0.273440517646222,-0.387264848337467,0.30141303150745
510,1280,0.766722265005294,0.431185480353797,0.946651842436184,0.0842678307999518,0.0349355310847445,-0.00111430193518089,-0.188980659699947,-0.342598594775408,0.361802331765194
511,1281,0.768274277272929,0.42898670674936,0.946670744732648,0.0955086725122379,-0.0130489131476043,0.00127888212459549,-0.313576942746521,-0.383571457581126,0.257521961752281
512,1282,0.76981289316458,0.427099605690056,0.946690971521476,0.103615306814765,-0.046906661491474,0.00245641695147062,-0.285429841542122,-0.440873427778504,0.134729433295993
513,1283,0.771264882729717,0.425623701848691,0.946706618445673,0.106753508020997,-0.0700795995476103,0.0035443109233133,-0.240378453723034,-0.480426823934802,0.0750330034204507
514,1284,0.772605447313011,0.424578666085958,0.946710500557991,0.107614367677234,-0.0823528533146368,0.0033453528934575,-0.164251703387742,-0.504465153715363,-0.0381959363794403
515,1285,0.773839181186176,0.423923455143448,0.946697037191317,0.106607815841221,-0.0863595826196635,0.00270337615484827,-0.100665718685439,-0.48387139819847,-0.0901042002788134
516,1286,0.774994891131082,0.423621640654724,0.946658770072405,0.106607154367389,-0.0828465326284738,0.000586635036639037,-0.0369792230988001,-0.50522524724738,-0.161956450329939
517,1287,0.776116589854247,0.423642082458627,0.94658016652597,0.10841296134764,-0.0737219206677443,-0.0038939679557484,-0.0240265483938071,-0.616779376990768,-0.299033167004388
518,1288,0.777258914939087,0.423925045089852,0.946465405231194,0.112154222508232,-0.0624935032405296,-0.00786369227127487,-0.105711050761149,-0.769069260285635,-0.213949267234411
519,1289,0.778424621471529,0.424449876489496,0.946305444686723,0.114983750793167,-0.0464632836237703,-0.0138438977355189,-0.0970714387255986,-0.702161792021681,-0.391117595999958
520,1290,0.779603067714634,0.425168286912482,0.946105309092169,0.117281718290626,-0.0312877344456116,-0.0191530378830861,-0.0486323734353767,-0.623538827379221,-0.360918335318191
521,1291,0.780771264066425,0.426010515902984,0.945890642849381,0.117260627430607,-0.0189391477759473,-0.0216249476285892,0.0168514736686199,-0.639938988187363,-0.225204315260879
522,1292,0.78192920061657,0.42695843362088,0.945657571007321,0.117273146817823,-0.00433964811858737,-0.0253073463861154,0.0241833899808577,-0.529187568267576,-0.291482139519954
523,1293,0.783081583705388,0.427987404975842,0.94541551755102,0.116258716933033,0.00967079016232233,-0.0278411202844523,-0.0832121568641992,-0.549476315797472,-0.202934967000495
524,1294,0.784217963355473,0.429051312995926,0.945174133679764,0.115193456266811,0.0214467558063298,-0.0295439738693549,-0.121161723172507,-0.432342477773792,-0.157139035979243
525,1295,0.785322276822607,0.430114054190539,0.944944631592916,0.112068349921218,0.0303314069980673,-0.0295220954477345,-0.135742003375682,-0.31754387707441,-0.074334480949858
526,1296,0.786352691824621,0.431137431236769,0.944743867152067,0.10605751739852,0.0360949157956299,-0.0266513421131282,-0.136272402807374,-0.127456811240732,0.0833399989326916
527,1297,0.787310659871215,0.43209457858354,0.944576874705528,0.0993149705900793,0.0396261566903045,-0.0234739750427855,-0.173796591939315,-0.0762267548796639,0.115955361615609
528,1298,0.788203229990983,0.432990466766183,0.944435702318777,0.0939938436475349,0.0439815741847685,-0.0204665123456809,-0.20001562372752,0.00256979237645719,0.164985205794403
529,1299,0.789034114079526,0.433823179275395,0.944324990759358,0.0885591278239412,0.0473270965834309,-0.0158191514589006,-0.15445971155871,0.0988973666088089,0.30326177993487
530,1300,0.789857416065428,0.434620850414574,0.944237900316374,0.0852610482283132,0.0510104254743903,-0.0122274631971054,-0.173461127171777,0.0604774186743674,0.303575446385934
531,1301,0.790622479118533,0.435380914561871,0.944175205462435,0.0822392922873637,0.0554586436277068,-0.00821645903306592,-0.00984814128800061,0.122164513792544,0.324808174772093
532,1302,0.791368956105334,0.43611510611711,0.944133003558673,0.0794173678197408,0.0593883560913695,-0.00437971423894078,0.057229502302968,0.150693042935877,0.305638221157689
533,1303,0.79208809366031,0.436821806293257,0.944107379874926,0.0765848232829929,0.0612914904317798,-0.000988029686493629,0.0709585922516886,0.0716472134379867,0.261544339883112
534,1304,0.792766041289105,0.437492189585713,0.944096802112272,0.0725439276334366,0.0624882370306997,0.00196155486324467,0.1033492662243,0.146409970350106,0.182955550242047
535,1305,0.793422752893123,0.438104646630305,0.944090481587771,0.0695629982723535,0.0599014151540496,0.00364880105533751,0.0372464911046544,0.0385080420358508,0.0886884652130822
536,1306,0.794087775973805,0.438679207697743,0.944069931722159,0.0692745857734048,0.0571587037523276,0.0032441748327997,0.0347751845059236,-0.0932232972893547,-0.0230181498632186
537,1307,0.794788000556125,0.439215247109674,0.944020861703789,0.070882449243847,0.0536226375214382,0.000434942198642761,-0.0192920163129102,-0.176381665378128,-0.186436048718606
538,1308,0.795507137526991,0.439691274028927,0.943939233931182,0.0730054661249044,0.0473117855515789,-0.00293238552947291,0.0767456814560899,-0.130782507148296,-0.285689563142912
539,1309,0.796222432363589,0.440094922145145,0.943822303557258,0.0748146768674251,0.0386055645728744,-0.00656252682205491,0.186449755606432,-0.120142033934065,-0.371164854856457
540,1310,0.796940785339533,0.440417435327025,0.943674284421742,0.0757999215460536,0.0283876427387402,-0.0109052940333394,0.306624012051329,-0.196954746461939,-0.46177458924319
541,1311,0.797616972113065,0.440637727554892,0.943497097399214,0.0750058879681947,0.0179523908685293,-0.0147827090035425,0.411696790379991,-0.184473344131209,-0.442391151141506
542,1312,0.798257464368661,0.440794780673252,0.943292889506882,0.0765142748366708,0.0111511210556631,-0.0189677335840669,0.547221597929316,-0.0906004970853583,-0.469231558798694
543,1313,0.798873129110297,0.440903968909036,0.943067682672,0.0774907329392628,0.00582025051658575,-0.0222140120018573,0.611744544805887,0.110174483047825,-0.435754737155689
544,1314,0.79944768053722,0.4410210410294,0.942817699879847,0.0776389074533557,0.00504797645399824,-0.0254990207627869,0.613797615242536,0.187976662214031,-0.410293573184203
545,1315,0.799987210423899,0.441145528942977,0.94253265502445,0.0768951420727601,0.00269893490300806,-0.0299982104292706,0.539996497096064,0.0736025157813556,-0.470291308700184
546,1316,0.800476190224378,0.441260296582226,0.942214191958786,0.0753239919644058,-0.000412470707653456,-0.0320522735755279,0.356927706457745,-0.156076560690642,-0.0606161865988283
547,1317,0.800930735283223,0.441363253591245,0.941896871804969,0.0731307506642024,-0.000955447975208551,-0.034515625563245,0.337028826697546,-0.0880759087306028,-0.198839140856064
548,1318,0.801377947218521,0.441509187626206,0.941564572736395,0.0713135897698059,0.00205455109749584,-0.0360033922120416,0.140085907488461,-0.0205281456629505,-0.141956372683193
549,1319,0.801849982251026,0.441754471023475,0.941234037590181,0.0720124477315643,0.0107985370348999,-0.0355203437433764,0.120554952802292,-0.0318151414625759,0.00713502448228665
550,1320,0.802209761867329,0.442075405671602,0.94087561335332,0.0804641139513405,0.0238948436300462,-0.0325444144463298,0.180902820230231,-0.0642163320344937,0.209532596364588
551,1321,0.802952615210728,0.442580651274501,0.940574323732961,0.0883304740943971,0.0390108684158044,-0.0310410618500559,0.50539578075852,0.31088331584281,0.191649893210995
552,1322,0.80376556310556,0.443192786432649,0.940291364868931,0.0874977326393877,0.0432818811859709,-0.0297073765325449,0.26884614879373,0.0492009543482764,0.18172452708244
553,1323,0.804590809237003,0.443780079870167,0.940011001022207,0.083089405483921,0.0428755797547099,-0.0295258388483716,-0.0722555112244625,0.0742015648263447,0.181535067164179
554,1324,0.805435130148543,0.444362691208831,0.939747074744276,0.0791932176801414,0.0396996184549813,-0.0291783816274643,-0.201003240042426,-0.317459786686178,0.228857418628421
555,1325,0.806345463925802,0.444990042736758,0.939487787459737,0.0823188421493664,0.040983781763468,-0.028496964667577,-0.13574671497833,-0.761801642341932,0.310689563281539
556,1326,0.807168544266317,0.445810935840537,0.939683194682466,0.0852236113953478,0.0507833345728692,-0.0213376808478302,-0.120300885733368,-0.716179969373203,0.183821336929247
557,1327,0.808331874148396,0.446712849366501,0.939526957342326,0.0942925587074826,0.05903530112202,-0.0181081983753257,0.0269801669073436,-0.361501207235503,0.199823410148621
558,1328,0.809585371908164,0.447565783461797,0.939334861985764,0.103397894481692,0.0560745142063742,-0.0135889583076327,0.479857876198132,-0.137779266579188,0.246411029258298
559,1329,0.810881516562564,0.448262608307549,0.939228628460234,0.109731200708695,0.0478370006823956,-0.00668395223668808,0.579210657217253,-0.114841050559042,0.320051656596663
560,1330,0.812178513948592,0.448806782666672,0.939178004274152,0.11373723075193,0.0398331790048897,-0.000519920108281518,0.262239865834396,0.000395454779659366,0.297695597525712
561,1331,0.813546652279449,0.448694934821599,0.939096469458142,0.116561458808462,0.0295298839749956,0.00199706716587853,-0.0543110869256275,0.0373597460779995,0.196806759743202
562,1332,0.81481642179585,0.449085806085439,0.938988639286331,0.116331174314413,0.0270217338826037,0.00216777210309637,-0.371988979483244,0.129985858537633,0.098287428469537
563,1333,0.816101752788326,0.449322665894353,0.938965306694559,0.112701129485834,0.0255296000722808,0.00284150066735628,-0.566525543109982,-0.0464251034334314,0.0742271223723991
564,1334,0.817346711531489,0.449641398895743,0.939028219919258,0.108377512318252,0.0261450848856948,0.00420273788671162,-0.592526990759205,-0.106282538883055,0.0765489535937435
565,1335,0.818543293621241,0.449888972897202,0.939142441068634,0.102784623844374,0.0274313285108768,0.00579793905149163,-0.579462544496305,-0.150004490463033,0.0728468005012234
566,1336,0.819660205361019,0.450090517222976,0.939289218503643,0.0967745976809126,0.0273663191542195,0.00727933768132584,-0.492661803537633,-0.0199835636575279,0.0479083141016647
567,1337,0.820674827380637,0.450197995671607,0.939461310738752,0.0897432747044178,0.0233801958051539,0.00829878821472885,-0.400308426005719,-0.0216910644968691,-0.013448091626629
568,1338,0.821602141557395,0.450241925982243,0.93964613385019,0.0839862147428881,0.0178369384901332,0.00782923039903082,-0.347993934798537,-0.0969530458028121,-0.10783683813991
569,1339,0.822498243374003,0.450242849096752,0.939829829991414,0.080834447296925,0.0119625777176058,0.00565378866609822,-0.323205837131068,-0.193090001796774,-0.215696691017393
570,1340,0.823430535998679,0.450237742694211,0.939999129008636,0.0807604657948522,0.00696609888811756,0.00242422393911162,-0.336001310891836,-0.229261056856506,-0.275983438772199
571,1341,0.824434072858238,0.450239045987579,0.940160855286585,0.0839224633512618,0.004346623391634,-0.000225438122562515,-0.326350779506665,-0.237179202620042,-0.213349338665034
572,1342,0.825513953093333,0.450250395204186,0.940348155812195,0.0878745080251288,0.00179721792776201,-0.000160692472795879,-0.247952068363684,-0.184325397823258,-0.057252794645637
573,1343,0.826680353670195,0.450274531732413,0.940573344105276,0.0933096305397131,0.000590357258413407,0.00180339977599792,-0.130692437039032,-0.163661697555681,0.0965863723505886
574,1344,0.827915721233791,0.450305810581568,0.94083916153406,0.100161198631698,0.000943378767296099,0.00500439979088604,-0.134476800135189,-0.123763552586148,0.230579063862641
575,1345,0.829179599124571,0.450375849323205,0.941141733080889,0.10584972341101,0.00328730979546195,0.0090922933056232,-0.0977725359325741,-0.125306017577765,0.314342898105777
576,1346,0.830466643169529,0.450456026919571,0.94146709507943,0.111092987484176,0.00479611213985369,0.0127808382923064,-0.15179823021571,-0.0632386692106665,0.313591008356059
577,1347,0.831748569221537,0.450549385379319,0.941811994641025,0.113953963818453,0.00575333158715541,0.0170383503191885,-0.110986864662644,0.00105244724221066,0.342591285043523
578,1348,0.833035012809621,0.450663213977076,0.942169160296031,0.117364688874851,0.00766434967351007,0.0203796079496227,-0.144051030088114,-0.00669021762281945,0.306487692646404
579,1349,0.834315350830575,0.450832811156815,0.942526251820419,0.121370100529279,0.011549378586279,0.0222046078525314,-0.166006455214755,-0.0346463868597239,0.212124083303978
580,1350,0.835578388148695,0.4510722092791,0.942871923240362,0.123876369914737,0.0158855207070712,0.0236397433334893,-0.176214054493126,-0.0445892350527655,0.189080716380409
581,1351,0.836811237191965,0.45137779913482,0.943203297622742,0.126284535999219,0.019761132111363,0.0241332873181185,-0.147397613503114,-0.0114188441588095,0.142922663816932
582,1352,0.838005388616998,0.451740438418006,0.94352512745458,0.125951982364551,0.0235215205354799,0.0255202258971717,-0.078824895617095,0.0209711273536623,0.189412826077294
583,1353,0.839173581692551,0.452145781725064,0.943835268143184,0.125220029049099,0.0273204696711755,0.0258278318991707,-0.0538995944952897,0.137151775451621,0.109337289443449
584,1354,0.84031912076973,0.452580618121634,0.944132056515261,0.123406118648115,0.0301298322238997,0.0257826614823898,-0.0384924258817181,0.136355138427213,0.0575072884456134
585,1355,0.841455752794386,0.453042040125326,0.944413129099738,0.12187384052149,0.0330510128395952,0.0248493224448468,-0.0264741287429943,0.147842527154746,-0.0249949864289434
586,1356,0.842584874620307,0.453513184090758,0.944682292634792,0.11957015301983,0.0346045053901246,0.0244638707166408,0.0617262642369184,0.186630689324619,-0.0245897830898668
587,1357,0.843716144775662,0.454020502793305,0.945007947752706,0.117403316726843,0.0371342254029337,0.0246183990477395,0.100901600248569,0.183982796500161,-0.0460191442030848
588,1358,0.844871713381832,0.45453288552747,0.945398953437959,0.116361845832429,0.0400118464456946,0.0243926626691958,0.0392906993031109,0.210213448704769,-0.0909253435769454
589,1359,0.846038963039527,0.455086310733135,0.945787154317205,0.114994844852678,0.0432930104567835,0.0244229354955587,0.060173667159447,0.235727531142878,-0.0904912818728339
590,1360,0.847194200290684,0.455578158375539,0.946165938270175,0.114172182161805,0.046449967876466,0.0237586501001546,0.0232212426196618,0.284692338181304,-0.140960002989279
591,1361,0.848327373954717,0.456055327940746,0.946520195328046,0.11244045321156,0.04948233692468,0.0223985504120959,0.0263452485864246,0.301639766969013,-0.217406650293617
592,1362,0.84943782132548,0.456529059007087,0.946831238198084,0.110776059924495,0.0538247360402579,0.0205698466270167,-0.00362976182203526,0.35631036732517,-0.230338998165215
593,1363,0.850538337734454,0.457019265586275,0.947088846193955,0.109788608095953,0.0587447718476086,0.0181578761524383,-0.0288870883872406,0.363005683276198,-0.235993600897466
594,1364,0.851661150883083,0.457529584366174,0.947287008643729,0.109486852881438,0.0645340406511166,0.014861664814603,-0.0463980591774727,0.3907226305735,-0.283943862256202
595,1365,0.852812478401281,0.45805105539304,0.947427372351521,0.108518774608936,0.0681958664832975,0.0119884349310976,-0.118283222900434,0.445861209305285,-0.25174355901134
596,1366,0.853978115471968,0.458608609489149,0.947441570222668,0.106843512149537,0.0707019364911326,0.00932958168872846,-0.0979828531085011,0.403243861671189,-0.216127529928456
597,1367,0.855159877849695,0.459131016761716,0.947421954201952,0.105092730897985,0.0708079150009336,0.00788428368882993,-0.0853237996942802,0.526788426631619,-0.108051880756407
598,1368,0.85636650532972,0.459672181579987,0.947392356760979,0.106229910790617,0.0715561020999408,0.00644789052227273,-0.0915721161613876,0.486112876552269,-0.0627978801301862
599,1369,0.857593310532224,0.460200095479795,0.947360264780649,0.107734094267587,0.0714369039028055,0.00618606142080191,-0.0320055745179948,0.458386608749959,0.029035395268028
600,1370,0.858817728697957,0.460683920500843,0.947339927921105,0.108631240799859,0.0668765279548667,0.00760188227952093,0.0463181096491765,0.460198027011021,0.14162929841076
601,1371,0.860028829172876,0.461134056943717,0.947335522605825,0.110234903178372,0.0631561174378793,0.00885667127324634,0.123614910394886,0.374900511611161,0.159727380227673
602,1372,0.861231643640303,0.461581261116033,0.947337419934257,0.113646526561598,0.060448099508378,0.00891379711991873,0.0535478644474086,0.191797510941238,0.125819805789166
603,1373,0.862422790053781,0.462037182012208,0.947337510929376,0.117194966174466,0.0588203427784122,0.00775713755812118,0.0138885357228771,0.0542293023691144,0.0530779786898286
604,1374,0.863581432622901,0.462520601302462,0.947299902178378,0.119071374265179,0.0570615748753298,0.00648856605103658,0.0493712967735935,-0.0550047409632008,0.0571756776008929
605,1375,0.864698184586106,0.463046760546316,0.947284419359121,0.118952215587991,0.0561487092690509,0.00544759276444525,0.0882616201488866,-0.0897133752329694,0.013076971351067
606,1376,0.865825086011579,0.463525688518078,0.947253660805487,0.119480508181033,0.0562545776757736,0.00355623051641364,0.0495741334572523,-0.168070151319817,-0.0343867508352202
607,1377,0.866936920381829,0.464115901793472,0.94721417092049,0.119474376738886,0.0586961697834312,0.00143721831374802,0.012275571444943,-0.190028805143822,-0.0697186523825531
608,1378,0.868047137274618,0.464759849429213,0.947166250955697,0.118152245170042,0.0625514977605463,-0.000170695992808066,-0.0328076699156923,-0.165739881067902,-0.0497211856871804
609,1379,0.869149325143037,0.465496042882572,0.947113414049543,0.116662636818397,0.0662450256096225,-0.00163319365264787,-0.0262275966671807,-0.122000520439499,-0.051415124449767
610,1380,0.870255654851321,0.466328415014354,0.947055019535438,0.11542410947475,0.0703276897498134,-0.00304355095428599,-0.0120239053684082,-0.0455407043083583,-0.0641685735495792
611,1381,0.871351855358978,0.4671857081724,0.946999902426542,0.113981711926925,0.0761677368574473,-0.00384598345255794,0.0260482732427029,0.0399482463276761,-0.0432578728077305
612,1382,0.872469471733592,0.468114465594403,0.946946406194543,0.114217592440038,0.0813906147763626,-0.00440259095904742,0.0390963471446542,0.0794002312435658,-0.0163511126433148
613,1383,0.873593201551127,0.469084059250277,0.946902264939055,0.113797833014925,0.0856506494620076,-0.00408827738857041,0.093605488432339,0.162135314182457,0.0128045764885638
614,1384,0.874717481310955,0.470099776138536,0.946867934511657,0.113413189183775,0.0905954657890207,-0.00349682679316911,0.127883947256645,0.299883002007042,0.0220036087135385
615,1385,0.875857793888645,0.471169322277515,0.946834965398462,0.114940152464614,0.0961610912107769,-0.00383840593797721,0.0984753412177244,0.320654491825594,-0.0211230865281832
616,1386,0.877001808208409,0.47229625752851,0.946798849674562,0.116039749104123,0.101469346172398,-0.00394843814191054,0.0784266742388016,0.346781015376475,-0.0128832036178736
617,1387,0.878140604944489,0.473471787534704,0.946761785868208,0.116445669179652,0.106587320281242,-0.0036931605854357,0.0854435757098246,0.398675654317135,0.0112689710005838
618,1388,0.879267095759166,0.474687748514964,0.946723727950245,0.116368924008712,0.111192245984999,-0.00309949060908755,0.0705382710493702,0.415633953255734,0.0424985223426484
619,1389,0.880381416858637,0.475945646914168,0.946684275775336,0.116407213140493,0.116176316121363,-0.00219324534295283,0.0876319301598188,0.440049568398328,0.0775504744178925
620,1390,0.881494699334594,0.477261379024823,0.946634546399129,0.116964076947383,0.121962257585015,-0.0022852826182395,0.0520077626854959,0.465865923692053,0.0318275137180245
621,1391,0.882603413148768,0.478626017396132,0.946561097647434,0.116144895420316,0.127572277525863,-0.00247209253717722,0.0485587892024777,0.446027944337461,0.0343589107590779
622,1392,0.883720540335763,0.480016200810589,0.946459748740215,0.115741256068896,0.132198101345284,-0.00281249642132571,0.0973393555690185,0.577186071601169,0.0454653647235368
623,1393,0.884820665176312,0.481401669983765,0.946335107367068,0.114282820674632,0.13659291838302,-0.00336943370670314,0.0227046489049356,0.484723511842239,0.061584064791233
624,1394,0.88589835592815,0.482735152590751,0.946191647498922,0.112484171346253,0.13968071807919,-0.00426771369512075,0.0316102204735721,0.573073620349906,0.0486251913583088
625,1395,0.886946603797763,0.48397271954027,0.946042415821087,0.110334740634934,0.140863390475973,-0.00477373600020892,0.0381507083577555,0.578713624023686,0.0614162123042696
626,1396,0.888021485980916,0.485052736784789,0.945895430235604,0.109616081324953,0.138410993852477,-0.00420558377414285,0.101218732160923,0.548334443890276,0.157524296080609
627,1397,0.889242588865087,0.485727752635639,0.945774021814708,0.112174885508506,0.128175328275118,-0.00290573392135663,0.212155300194061,0.625524669850079,0.187325598775733
628,1398,0.890675318198944,0.485915197259178,0.945685336682015,0.117430382105434,0.112497950132142,-0.00098499567011138,0.237179933677141,0.570236778408016,0.217332922568842
629,1399,0.892283597926241,0.48579532178225,0.945626438331956,0.126787473841209,0.0937790795875365,0.000601664909856494,0.250830226631018,0.572512010112001,0.209153519970226
630,1400,0.894000020003089,0.485689982134479,0.945573062292175,0.137060689228033,0.0801916261228061,0.00137390845433166,0.289162299541305,0.554914909097232,0.153785233008282
631,1401,0.89575920657992,0.485685872452441,0.945518451866258,0.147242410377191,0.0711520164425427,0.00131417842786124,0.232225289240464,0.527391177276984,0.115151213305769
632,1402,0.897515234363257,0.485915703171376,0.945460442816401,0.155176602391002,0.0672091990625134,0.00168148178956308,0.372932499451978,0.495497821538423,0.115905467045967
633,1403,0.899259650202136,0.486412465246973,0.94539667303941,0.162158714293072,0.0685636793473134,0.00134865941141621,0.330685146158088,0.510921595082082,0.0745158584537704
634,1404,0.900968847911362,0.487186968971208,0.945325405631378,0.167774952843606,0.0740305418387561,0.00070213922947895,0.337268394069246,0.414981035749479,0.0452746232326174
635,1405,0.902630378599604,0.48820760510047,0.945245441604518,0.171710684429399,0.0818634797877004,-0.000453028737201414,0.366348717255248,0.399777358695454,-0.00567459034573442
636,1406,0.904257085338112,0.489437983420043,0.945156725156231,0.174342797327849,0.0911969265804362,-0.0013383574296901,0.366608626365847,0.357215631705782,0.0029945822402401
637,1407,0.905854166880401,0.490857026456329,0.945059106754617,0.176232033993029,0.102972072493233,-0.00241463416526994,0.343621935152279,0.350122211840106,-0.000443886815981885
638,1408,0.907440633100149,0.49243068716545,0.944947633456727,0.178439596716852,0.11743772340122,-0.00355299950322932,0.310993391948181,0.31799543246802,0.0201442484508536
639,1409,0.909017348583731,0.494208061342666,0.944821568898078,0.180468474435613,0.132799654272821,-0.00494699308259694,0.298702630898406,0.331668357914015,0.0147393389593825
640,1410,0.910575772290093,0.496115563197669,0.94467694494519,0.181536655665294,0.14672301099358,-0.00652854181986257,0.305519646890212,0.378719406468252,-0.0233449361741923
641,1411,0.912119719638676,0.498123656393555,0.944513580643189,0.181969783752786,0.158991672476714,-0.00837859835220902,0.284143175242456,0.358694061037309,-0.0498357828451338
642,1412,0.913655757050056,0.500217246932046,0.944320654691296,0.183312697408836,0.170431083012522,-0.0116134839921581,0.242778102735069,0.308549565081809,-0.145427334141289
643,1413,0.915177584139447,0.502353343917705,0.944099016228419,0.182955157044912,0.178421301899154,-0.0151040074014153,0.200345919785381,0.234720377911512,-0.210391587840304
644,1414,0.916674352241106,0.504509019038796,0.943852486533531,0.18088821580037,0.184005663384587,-0.0184132290776661,0.234014400756843,0.242413722848112,-0.252737664450819
645,1415,0.918168501866567,0.506686759192384,0.943575260173908,0.179879033739842,0.190256836226244,-0.0229328092406748,0.124094301428602,0.269226753030181,-0.324463807329204
646,1416,0.9196574960161,0.508908157265261,0.943265440555135,0.179641793729776,0.19837152324852,-0.0274057816651766,0.135630350306958,0.314729441785447,-0.313603630457023
647,1417,0.921144490782903,0.51114900962199,0.942934848420636,0.17855392627394,0.205124004994024,-0.0302777185844625,0.174273446709146,0.431043986166396,-0.223046624890126
648,1418,0.922617940186284,0.513390557672878,0.942603888319331,0.176072279617335,0.210418210454826,-0.0310180247918995,0.264107691424112,0.569428831974117,-0.104325006145638
649,1419,0.924114590691499,0.515642697254065,0.942273980024398,0.176423869522198,0.215967460030476,-0.0319543523386932,0.232878384695504,0.560986409331377,-0.0595605701532395
650,1420,0.925643414414543,0.517956731179114,0.941931088148431,0.177761876391775,0.223297317327383,-0.0337562842664334,0.18406336497178,0.523613490107703,-0.0940078575745554
651,1421,0.927185512297449,0.520290298388593,0.941583243557079,0.176544486383802,0.232022341236784,-0.0353361342978541,0.130161193134821,0.546397412780158,-0.127715076828708
652,1422,0.928686666230868,0.522675703593906,0.941236270252862,0.169185806282028,0.239509091933422,-0.0357399398657068,0.13464800418253,0.606073581613004,-0.169422851589557
653,1423,0.930103323206741,0.525086400837627,0.94089822951618,0.157030600668947,0.245214709049634,-0.0355656044096865,0.111326907505893,0.726356148854547,-0.238834972630676
654,1424,0.931435137645473,0.527515359529389,0.940566899222704,0.144512492029558,0.250103064259822,-0.0362560852073283,-0.0214948815114511,0.66763997882946,-0.31342610506404
655,1425,0.932670118244621,0.529923118528968,0.940242681833842,0.131098729874817,0.25183771749895,-0.036499145319153,-0.0897804893729586,0.62322907423142,-0.319001529841657
656,1426,0.933820695226542,0.532267206880524,0.939935073758034,0.118696489788653,0.249259373250741,-0.0359024646735144,-0.0887192849192788,0.600866295328232,-0.272984837815584
657,1427,0.934908981630681,0.53456077024898,0.939646241461723,0.109854025689074,0.24666873372099,-0.0357799636847781,-0.0041837058964551,0.548153124122012,-0.284509633409084
658,1428,0.935992737624376,0.536826320216843,0.939363394420678,0.106024447833601,0.245157011791952,-0.0373579053501181,-0.00619218423990418,0.426476591674421,-0.3574838232701
659,1429,0.937121894437703,0.539081681822551,0.939069421499366,0.105523533301234,0.244799857630401,-0.0408722600065355,-0.13121569826454,0.348773104149993,-0.455513563668422
660,1430,0.938329533033828,0.541333178161557,0.938753645886509,0.108143343613317,0.244662421344407,-0.0447093125710204,-0.14255765471865,0.24135364152858,-0.449044776901591
661,1431,0.939621066485383,0.543560711988901,0.938424248647102,0.111231398341353,0.241379525031315,-0.0471304377486584,-0.208130988058205,0.232321697369924,-0.343901406818494
662,1432,0.940929419333846,0.545730969794007,0.938113979771448,0.111389452551428,0.23466369847637,-0.04580319011381,0.0146437113307292,0.277329102610938,-0.154657550375154
663,1433,0.942253541489499,0.547861193817598,0.93783445573926,0.112907860017334,0.228186158397323,-0.0438659345455239,0.123559809937843,0.226276237205773,-0.0891650542536384
664,1434,0.943574724240766,0.549956117437296,0.937587144784501,0.114159184512165,0.221947513870124,-0.0414960245118684,0.0766063999513646,0.194369999926132,-0.0124846476091437
665,1435,0.94487007947281,0.55202511157219,0.937372077350233,0.115137827473676,0.216698042639587,-0.0383932309484899,0.144295920633047,0.0767538134119669,0.0770843745614302
666,1436,0.946161602933708,0.554078084624003,0.937191496311208,0.118088836415134,0.2137379722618,-0.0359920349399649,0.0894129454940499,0.042305740999269,0.0219102067860934
667,1437,0.947442720740108,0.556136841071707,0.937030609903852,0.120323332609341,0.212931395411882,-0.0346559676476003,0.0309755575490486,-0.00770701823190868,-0.055064092609206
668,1438,0.948731828346575,0.558201385129116,0.936876298646049,0.122854873751793,0.213294526084681,-0.0342149799752214,-0.016594857592276,-0.00846014017888758,-0.10622795195492
669,1439,0.950014992675635,0.56030171103009,0.936722071429358,0.125061478683514,0.216538111676205,-0.0343967761697554,0.0445883081712486,0.111649354786803,-0.166199665415632
670,1440,0.951335877977183,0.562426961596398,0.936565359027091,0.127140496207012,0.221138125525727,-0.0346408299117468,0.121014253762377,0.198260081127051,-0.182788941922335
671,1441,0.952650654137822,0.56465451062806,0.936422308195607,0.130130243789921,0.230167820508573,-0.0334481888727784,0.0320339419917603,0.227094406865848,-0.00904436504592682
672,1442,0.953944839681608,0.567036410553629,0.936300973726077,0.131445247623919,0.240134221482213,-0.0309710696872947,0.0112724636174805,0.381298245431064,0.0731359561715978
673,1443,0.955195255050432,0.569502754842346,0.936212090039216,0.130720305152792,0.247074654252819,-0.0235194650232723,0.245373633630958,0.567841752076219,0.464177052596408
674,1444,0.956368811749446,0.57203964407435,0.936201536241847,0.12837661836474,0.251821773362733,-0.0137800321191892,0.59621558228082,0.707021984860421,0.610797946570363
675,1445,0.957511855772278,0.574660194740588,0.936248229790755,0.125866761084375,0.2577733224085,-0.00843067449990439,0.368506875208206,0.5806811500011,0.307031532470983
676,1446,0.958648351695791,0.577386824182518,0.936298787682736,0.123999407022095,0.267149175930615,-0.00652718011538052,-0.0024096787043163,0.467155982508103,0.136460470868329
677,1447,0.959773830471977,0.580189794720699,0.936337901798315,0.121962370449083,0.275012432426926,-0.00510615113573389,-0.207806926061037,0.4078367041066,0.151476733891538
678,1448,0.960898467045957,0.583056072982041,0.936365889119378,0.120358416506451,0.281376402342774,-0.0025435161990861,-0.321696430833118,0.391210633571436,0.302464629346151
679,1449,0.961991904872571,0.585925765442553,0.936419192467986,0.115584442049365,0.280751386148248,0.0046817041291816,-0.327132535788224,0.384395179952887,0.655215857026011
680,1450,0.963039457930079,0.588735928181953,0.93655149197237,0.107765530657742,0.273024860687873,0.0188177011157069,-0.428756869528643,0.214213843513344,1.25170221220663
681,1451,0.964043750221872,0.591406126347786,0.936814436462276,0.103507265589011,0.258724939571512,0.035515233463244,0.00703065966348515,0.236380956930176,1.43152990513344
682,1452,0.965067108620608,0.59388967183106,0.93721087013688,0.108009090886172,0.242087385309878,0.0563424660735385,0.469311605589527,0.365196308660525,1.88929264644361
