,Frame,CoM pos x,CoM pos y,CoM pos z,CoM vel x,CoM vel y,CoM vel z,CoM acc x,CoM acc y,CoM acc z
0,212,0.00480751203800276,-0.207083080223421,0.975887764619236,-0.0530367443502287,0.0241262553493833,-0.0209158469164254,0.0557042075114457,0.374222489954654,-0.127048498859963
1,213,0.00452973653018364,-0.206616247528118,0.975952994137784,-0.0514803173288584,0.0323043643171035,-0.0190709770847575,0.082017073328126,0.393879994558337,-0.121465577235328
2,214,0.00355630477063264,-0.206317941056868,0.975974002506646,-0.0575353294307023,0.0389098314240229,-0.017438866778473,0.0514916855876707,0.321607890895692,-0.105174721847603
3,215,0.00282040364631241,-0.205850556833739,0.975977639877895,-0.0606338885709883,0.0451373854921521,-0.0162743518890435,0.0731059588421459,0.367731563683423,-0.100432973724026
4,216,0.00195527455798349,-0.205335101619929,0.97597888395509,-0.0633878715816827,0.0521540993928865,-0.014948725700185,0.0629625797644487,0.335004845702067,-0.0935999189180117
5,217,0.00116100407543902,-0.204711640413914,0.975988271584726,-0.0636140550383303,0.0591021075163747,-0.0133192264272645,0.0209430061553551,0.317278042697717,-0.0597843860348813
6,218,0.000363237145413818,-0.204005207964721,0.976012313717508,-0.0643645989885335,0.0655665782518185,-0.0114380098928118,0.107110660391695,0.304940895935338,-0.0100364888377711
7,219,-0.000382445647099077,-0.203190304582491,0.976058950480583,-0.064637060231437,0.0724351120061143,-0.00924088708067652,0.111646087609842,0.322188705697132,0.0338944589630053
8,220,-0.00112282293315448,-0.202267539855868,0.976131617092461,-0.0657881678099394,0.0786220900305875,-0.00750607719632664,0.167029954454257,0.167015757609878,0.00539754389518629
9,221,-0.00182879814013469,-0.201241553117325,0.97623395048428,-0.0650075422950032,0.0848781897251872,-0.00592009065796407,0.182035076638959,0.240745660107434,-0.00798995819101015
10,222,-0.00248225560165169,-0.200081192823996,0.976377504907805,-0.0628444199076165,0.091911431066515,-0.00479029627690574,0.222517042431601,0.161654307874869,-0.077749470323122
11,223,-0.00301381645345944,-0.198812561365348,0.976300815894584,-0.0568654364782374,0.0995874439938816,-0.00491781322597793,0.202406690425995,0.182377336479313,-0.0694860956282104
12,224,-0.00334967906991768,-0.197569961747021,0.976246351382438,-0.0491075982629779,0.103876537300554,-0.00342591792205633,0.184139434195997,0.236524553233802,0.104559450799659
13,225,-0.00347690515964768,-0.196541875730609,0.976263882169169,-0.0393391758657165,0.104624673053784,0.000666442151486355,-0.0570924037863459,0.38901747970778,0.273580135321021
14,226,-0.00323686788057115,-0.195987033746998,0.976245074043441,-0.0225378935215579,0.0948185201904726,0.00270983753145707,0.128594530477923,0.288443679644263,0.154575454974092
15,227,-0.00269963966044372,-0.195835140376153,0.97614552406744,-0.00336703685833901,0.0797998336516507,0.00478704604849882,0.158335799870363,0.142404627987449,0.332963983726485
16,228,-0.00202524065347672,-0.195824708804673,0.975986231877447,0.0153598311871642,0.0684152200596659,0.0058742922329252,0.254296322730394,0.316658965571548,0.26068299097619
17,229,-0.00134303510738988,-0.195841822293994,0.975783786349378,0.0292475988771098,0.0535723995796355,0.00726933130192917,0.346903012569073,0.151799776704407,0.372386766311461
18,230,-0.000733104679501795,-0.195769051008057,0.975559857833795,0.0378006090705537,0.0437693580807932,0.00728923915317391,0.402779757627948,0.0542021007220063,0.269629132732385
19,231,-0.000198280606207619,-0.19558225970436,0.97531874130057,0.0442731425040131,0.0372145601494941,0.00638621157427044,0.373471486567123,0.107453699385859,0.22140735280113
20,232,-1.06533951411019e-05,-0.19496765535987,0.974854157282784,0.0426123726315938,0.0423684395927004,0.00114598337309387,0.456314702250837,0.0996108747226457,0.0806339559046254
21,233,0.00061589977888878,-0.195177604465297,0.974638370253393,0.0465700371344529,0.0402756004692023,-0.00227641716107044,0.345247802270828,0.220640675370717,-0.0404752218380693
22,234,0.000627865609243951,-0.194531092090328,0.974366910938305,0.0421490281171448,0.0487567823375218,-0.00527422041355461,0.229562392871518,0.327148053654722,-0.0506382795756239
23,235,0.000496151125098556,-0.19378394581407,0.974079901355573,0.0343467187876239,0.0581239908744582,-0.00805538999942742,0.063200410154485,0.300565499994731,-0.0668640331224485
24,236,0.000279324009904382,-0.192930523335907,0.973797940375004,0.0257169008591869,0.0679461506288534,-0.0104317773567785,0.0544448382514077,0.329635972469947,-0.057326657201807
25,237,5.83542121091576e-05,-0.191943485390475,0.973605828460486,0.0209857768443451,0.0778801451284851,-0.012561721075677,-0.0229414944726259,0.310896091323597,-0.116843015545369
26,238,-8.12724670368132e-05,-0.190757666299942,0.973433014229133,0.019153745855133,0.0911453952488444,-0.0138763254891043,0.0142737241511651,0.25193110535403,-0.0914483685757454
27,239,-0.000104058608912454,-0.189421796757546,0.973270455550506,0.0195297834004625,0.103266606400568,-0.0134222257027473,0.0452063879032829,0.233650938165308,0.073662996773344
28,240,4.56089155696535e-05,-0.187950283190469,0.973132917688121,0.0257010830972458,0.114583978088244,-0.0121536641914841,0.0266783457818672,0.148501965082266,0.136182936377637
29,241,0.000343708877172407,-0.186389110029817,0.973029656030881,0.0332477221882223,0.123715982465043,-0.00936873264913394,-0.00586683084618881,0.0202260165013913,0.265945328307486
30,242,0.00080356006024958,-0.184733125333882,0.972966506241378,0.0434758696075707,0.132513731160133,-0.00523419388959495,0.0236560875569141,0.0584267036743584,0.394851064739345
31,243,0.00139981841492757,-0.182996098185873,0.972944707577841,0.0542704667445275,0.140019786150544,-0.0011404250276753,0.0446867048072065,0.0541535546689408,0.42947960889767
32,244,0.00208242509039502,-0.181244259117554,0.972959426289955,0.0616709163064091,0.144304923424047,0.00254822537753671,0.036980052775354,-0.0711735397660003,0.422721072614379
33,245,0.00276199445407477,-0.179548931377527,0.973003361155753,0.0663852638732035,0.143733631628344,0.0063182731033526,-0.0172845317572365,-0.139846074808005,0.468066838177728
34,246,0.00344563742940831,-0.177897086672029,0.973081077566797,0.0704528196934325,0.144154789374417,0.0106111195201546,0.0115815217976215,-0.255301397059477,0.510161444168288
35,247,0.00408838214593253,-0.176286670935605,0.973190991930762,0.0714853732068056,0.144487722834101,0.0146818421850332,-0.0282168318155582,-0.305772683807104,0.496653551114501
36,248,0.00465203501554386,-0.174727338142869,0.973327998758563,0.0688534617085843,0.143017934701739,0.0186274336309047,0.0366983210059025,-0.382477746980467,0.506290330071443
37,249,0.00511706062869285,-0.17322864797642,0.973490772854354,0.0614933110898628,0.140238195379019,0.0228087584373957,0.0548227819964457,-0.402255648113024,0.547387419035339
38,250,0.00548913168771799,-0.171792289038738,0.973679396708151,0.0496156965312583,0.135963506244717,0.0275898996140361,-0.0105972688796275,-0.487280683495334,0.619497175480964
39,251,0.00574791437024977,-0.170450713582094,0.9738969519273,0.0327181218457156,0.129969353213348,0.0342438531520611,-0.0509299751463597,-0.47907702869779,0.808961853198371
40,252,0.00588255512842767,-0.169189298753791,0.974146741439997,0.0148087254818494,0.125665053265285,0.0416161003556932,0.0317700633565145,-0.385832785987378,0.906386779217698
41,253,0.00591250317467999,-0.167995495513671,0.974418984881346,0.000764762450795011,0.121737529480651,0.047804892976899,0.100437488821887,-0.149072684749762,0.859745460840098
42,254,0.00594264445555929,-0.166776987270756,0.974701154936329,-0.00336583297211805,0.125831076444348,0.0518786003639414,-0.0754242553633475,0.0248831155340877,0.68411338780341
43,255,0.00607089795764105,-0.165456296998607,0.97498400894552,0.00177284709318943,0.135518891980411,0.0548544737441744,-0.441224029857048,0.017970366883769,0.583428815569333
44,256,0.00630345916333025,-0.163999872426114,0.975268088393468,0.00874417706150317,0.147332294624273,0.0573783421422626,-0.614675795285569,-0.117262903594326,0.555234846668532
45,257,0.00656110978678185,-0.162442373074219,0.975563389401585,0.00748109233540815,0.155497582820272,0.0613246749628101,-0.568557685065594,-0.111809902567035,0.730186494578511
46,258,0.00676760629478276,-0.160836313979397,0.975884192982661,-0.00245172165193711,0.159868911982637,0.0657383892887015,-0.597089070959093,-0.0177284822509212,0.836139877147965
47,259,0.00694908286400396,-0.159193044708851,0.976233420286915,-0.00959243838176904,0.165529066226191,0.0680679900568564,-0.524126212990694,0.170274741955851,0.67930298900192
48,260,0.00717167768620964,-0.157476388576914,0.976599986903586,-0.0103224364640692,0.174511037363351,0.0679038472613242,-0.495163035857734,0.304123850984541,0.443301799873498
49,261,0.00746262885390131,-0.155651875234383,0.976977206449612,-0.00816372074658127,0.18506752211967,0.0670162700677449,-0.473607127381427,0.301546150827779,0.338485215232722
50,262,0.00786148023879829,-0.153725254570596,0.977343605317937,0.00105078662647631,0.195577560383184,0.0615855117161864,-0.653715341420463,0.165808728200641,-0.0697621868486137
51,263,0.00878909969724595,-0.15192012484848,0.977382740321034,0.024196758978606,0.210248035358111,0.0499904647282322,-0.767976825104209,-0.417234034528452,-0.670282784615024
52,264,0.00936872193738857,-0.149737992908183,0.977694572452354,0.0272177221659995,0.213846592703867,0.0457023894547082,-0.379856187894807,0.368348084643935,-0.202152539684404
53,265,0.0101051475555447,-0.147484193016663,0.977941579541633,0.049817590531142,0.213485245180362,0.0308796905688407,-0.998523699708216,-0.785190123600477,-1.02808202489491
54,266,0.0108219057167559,-0.145372118681425,0.978100339372057,0.0588737982698632,0.204433703136536,0.0215037812672009,-0.578836049296205,-0.428976924064417,-0.778596593921487
55,267,0.0114024155439863,-0.143427656866849,0.97818014071863,0.0573302036393522,0.188589322969107,0.0135498883103135,-0.202299731475616,-0.349847656516272,-0.718788483619794
56,268,0.0117822460552973,-0.141706820335297,0.978193901458245,0.0505347250993172,0.167726071318936,0.00539384053493386,-0.104938404982967,-0.481409727484808,-0.816347450602462
57,269,0.0121371603964501,-0.140096018659144,0.978131389056001,0.0469854854180427,0.148793007836851,-0.0019877286940917,0.149896587826926,-0.548411753481967,-0.766991682510671
58,270,0.0124321896146575,-0.138730770222304,0.977994781951664,0.0473291073780132,0.128979158824466,-0.0113962081932109,0.210941421695683,-0.627753653632649,-0.94391065248143
59,271,0.0127634124674623,-0.1376609858838,0.977827461497201,0.0520951920352987,0.108049940876264,-0.016406289780824,0.525616662946721,-0.579302203844024,-0.676683664646801
60,272,0.0130276679018727,-0.137019503872909,0.977819980643557,0.0519223747956233,0.0830853555770947,-0.0195643884300303,0.751111437182609,-0.504114439692441,-0.720876848612591
61,273,0.0128540018996228,-0.137240187734192,0.977928500452996,0.0431300757584524,0.0462994089962936,-0.0209029513499084,0.736512734223793,-0.833010453368754,-0.663033377048987
62,274,0.0119328722467865,-0.138522819158874,0.97810655518019,0.0170438190987619,-0.00343587807133732,-0.0210287599657431,0.583676264379687,-0.849916762685754,-0.655634439654416
63,275,0.0104881753047009,-0.140469389227664,0.978310171594543,-0.0137462805770988,-0.0533164048284249,-0.0188022135322563,0.747210137433462,-0.654129165958514,-0.437559402391895
64,276,0.00888354077599271,-0.142638154873438,0.97849529461162,-0.0470323832163476,-0.0968251452588885,-0.017458579922303,0.709049021363578,-0.595261514126368,-0.497073980276517
65,277,0.00738709662060027,-0.144735154705956,0.978620740521621,-0.0724689588296321,-0.131412544678167,-0.0173974171420188,0.677931273179437,-0.729365667238473,-0.484957962255835
66,278,0.00616386115078395,-0.146582430979532,0.978697830920189,-0.0859065096860734,-0.149489736953724,-0.0171917448607819,0.639825048084927,-0.582042105588855,-0.360649297858751
67,279,0.00524892121848129,-0.148215129959461,0.978877783756774,-0.0928463486986281,-0.157466243748454,-0.0160934473243889,0.719803490808239,-0.231940418016175,-0.250333978305061
68,280,0.00461891362804026,-0.149393260306538,0.978906981615,-0.0965829130350902,-0.159706717959319,-0.016206413858521,0.469516713706042,-0.22836468988447,-0.430117894222244
69,281,0.00416848707402113,-0.150333593977416,0.978902011296616,-0.0955540648873365,-0.156657827918884,-0.0151498164278976,0.748058111490503,-0.0206998120943487,-0.209001468418197
70,282,0.00388774379002177,-0.151086759967705,0.978881686620327,-0.0938483090921257,-0.150775026644789,-0.0152115011741482,0.659356027824566,0.0688921468142824,-0.236279698162382
71,283,0.00376349752690879,-0.15165557545851,0.978833421865389,-0.0872376435034039,-0.141336112804278,-0.0184607393015285,0.552171247192675,0.0473356196754284,-0.49464520934624
72,284,0.00377904973838823,-0.152052494726685,0.978735927819595,-0.0802492888542707,-0.131323581973345,-0.0242379328927747,0.403607520368553,0.0171726118056134,-0.739652211455536
73,285,0.00379778936248244,-0.152372188437138,0.97856679328469,-0.0721132752882937,-0.122763312890513,-0.0329474433094775,0.259812942599082,-0.0842531881515296,-0.999300801963857
74,286,0.00376824716754455,-0.152641946692904,0.978319891155791,-0.0657879701956945,-0.114013160995506,-0.0427980363817882,0.155725356481917,-0.0960650274894677,-1.13884635063307
75,287,0.00367520695655671,-0.15289589837639,0.977991222077133,-0.0591658925678056,-0.10728802608517,-0.0537146924244781,0.066013577071323,-0.0939623490209713,-1.25071956313932
76,288,0.0035412557334305,-0.153159930948346,0.977574943511662,-0.0511207349518543,-0.102357867881091,-0.0663424991671539,-0.0761426118639965,-0.265086419224866,-1.39375433997543
77,289,0.00337725416046917,-0.153480050388701,0.977081012571304,-0.0433667549546406,-0.0987073903531294,-0.0770863995147907,0.0617581052818326,-0.283478415772555,-1.26708032918907
78,290,0.00320534411136068,-0.153907002560718,0.976534029699733,-0.0366114286138812,-0.098063247143908,-0.0857334570805756,0.00476209287526349,-0.251931678077405,-1.08864876584308
79,291,0.00304447638358168,-0.154501861070402,0.975976802864783,-0.0288407645743395,-0.103721849880066,-0.0895900458288021,0.214606484193654,-0.576804554490162,-0.654309467448106
80,292,0.00289286700811139,-0.155339626777571,0.975417217095792,-0.0238140158929286,-0.11600694923322,-0.0944891776052763,0.131538217785028,-0.733947340757341,-0.821685135404217
81,293,0.00273655094447764,-0.156457813133826,0.97484877902792,-0.0215752511720052,-0.130924521828741,-0.0962151649580274,-0.017143788166499,-0.622613810831892,-0.480567144043298
82,294,0.00255094065557063,-0.157893206827354,0.97429044848858,-0.0210878535302925,-0.151595276522504,-0.0944568603803188,0.216025994714376,-0.911934018019374,-0.0780247531622047
83,295,0.00236740825258902,-0.15968202506924,0.973752619249392,-0.0200331976870323,-0.176887459643674,-0.0912204900029628,0.391876828439414,-1.19181583346514,0.0581089583570658
84,296,0.00223726738653223,-0.161734672226838,0.973216911704854,-0.0185615683070715,-0.194683412983136,-0.0903396437126151,0.0296443085548479,-0.801299436618058,-0.162736023590747
85,297,0.00201442774698034,-0.164051068562342,0.97263886622378,-0.0260391563242049,-0.21269240210354,-0.084260448327093,0.031032467773897,-0.683654126836873,0.383969838994915
86,298,0.00182628316162518,-0.16636101238775,0.972182785283183,-0.033611350763276,-0.222215226039314,-0.078435514910073,-0.243764175451273,-0.629880269375784,0.359988041188134
87,299,0.00151800238824997,-0.168721645744734,0.971731968069835,-0.0470434147103321,-0.229634678106356,-0.072669478413456,-0.632906206218363,-0.681505135139684,0.424534707068962
88,300,0.000886971458958263,-0.171543683287096,0.971331461083714,-0.0629922747553393,-0.238717418631489,-0.0639271037612753,-0.795676000892861,-0.68694969936999,0.671299678128987
89,301,0.00026375905304755,-0.174225205933943,0.971001639348642,-0.077212421363303,-0.241649834134422,-0.0511756091373005,-0.785504994069769,-0.4814619469886,0.947932910702092
90,302,-0.000327459423480635,-0.176817900977037,0.970735854106426,-0.0844010837785602,-0.233861755697549,-0.0376744019427389,-0.681879455353873,0.204684184963686,1.10211531750774
91,303,-0.000923479027564959,-0.179147721961343,0.970586593616305,-0.0847877531378473,-0.216258147713151,-0.0242393747677721,-0.543371989972942,0.520917326917644,1.13382407056131
92,304,-0.00160413745796937,-0.181279455800714,0.970558597840141,-0.0823546955589148,-0.194029552240716,-0.0134680991000032,-0.570091595552405,0.643122002296659,0.942825768095183
93,305,-0.00238365990273958,-0.183155963235145,0.970613531745816,-0.084903756650394,-0.175818918731736,-0.00180185555744742,-0.70518248910998,0.427810232845683,0.978763661503998
94,306,-0.0032831887673218,-0.184928955476022,0.970722363578004,-0.0873974996961639,-0.156337593486537,0.00647219509998858,-0.687748243501688,0.577786792979701,0.69809439122537
95,307,-0.00416135983819772,-0.186511853581236,0.970844300496938,-0.0880513953311071,-0.136343016699935,0.00946942228233357,-0.971907273652705,0.45327058711813,0.241306438556802
96,308,-0.00500233394512777,-0.188052732681041,0.970937838451581,-0.087890451086736,-0.124654222251377,0.00896170359592702,-1.01932932840506,0.136810072124694,-0.0578427573784221
97,309,-0.00574600433615038,-0.189650773292091,0.970993622054108,-0.0851065912641277,-0.122346340885256,0.00744885893332525,-0.830572056914933,-0.151395870917335,-0.132504442151321
98,310,-0.00640077962792276,-0.191301153845156,0.970958655692834,-0.0835386079988761,-0.12887807847959,0.00422529755179924,-0.822238998127143,-0.314526895635925,-0.260516157750606
99,311,-0.0070382089244764,-0.19306399479795,0.970926062869405,-0.0826649108386512,-0.142465549194842,0.000455194776718406,-0.728243953515294,-0.381605863081726,-0.299934289404629
100,312,-0.00761803904470632,-0.194834556633824,0.970904642451351,-0.0811183727535416,-0.159361860345278,-0.00101258386795915,-0.514869685597084,-0.419019652128707,-0.0793049261792182
101,313,-0.00814110770255666,-0.1966527027248,0.970910972687646,-0.0785032564685683,-0.177402956125537,0.000267965211005462,-0.327414417775651,-0.555406162359058,0.188477163764303
102,314,-0.0085917572931054,-0.198506867677953,0.970961184736798,-0.0753387782492482,-0.194340895781781,0.00486118423144732,-0.153255797900399,-0.532911598294029,0.514275977158164
103,315,-0.00898937647356303,-0.200384179073433,0.971072527997661,-0.0732945895966956,-0.207647808144742,0.0124187368084148,-0.0395661647662511,-0.458714242702532,0.809684661353686
104,316,-0.00934909105827293,-0.202241432058001,0.971255898248988,-0.0723161939736853,-0.216576948916064,0.0222693085346516,0.0266811269400832,-0.363469369844972,1.05013488698041
105,317,-0.00966565586893714,-0.204054142766149,0.971505429093646,-0.0702355370700491,-0.220312604666675,0.0310878132102768,-0.0126752520463624,-0.241596970929519,1.02178847533578
106,318,-0.00992760604213394,-0.20577834330957,0.971811167894328,-0.0647673423181851,-0.216033416402064,0.0389370088493784,-0.117316684483222,-0.167819967245593,0.936888811356397
107,319,-0.0102146508249757,-0.207493027693954,0.972244926545123,-0.0599652297498853,-0.208766942834874,0.046013495488356,-0.355707692666274,0.0535162460386573,0.821640253533455
108,320,-0.010590989939068,-0.20924537229547,0.972690669875497,-0.0585760521830644,-0.201762724923909,0.0516945830393614,-0.390752016148605,0.24689529674728,0.740840680215764
109,321,-0.0109401092349597,-0.210900397380543,0.973203128626759,-0.0603206338283214,-0.193926159500043,0.0568273724373745,-0.335685300920724,0.350346139760487,0.696394229225509
110,322,-0.0114353884716933,-0.212627039202442,0.97375712963347,-0.0637737234477184,-0.187372028289784,0.0600968326772531,-0.323124641860412,0.353344213698026,0.519367821155793
111,323,-0.0120573456897583,-0.214420490739586,0.974400419439719,-0.0691779267796799,-0.184300626587176,0.0623329766382346,-0.168990951547565,0.326274146165398,0.382748821157524
112,324,-0.0126929924696768,-0.216249842479746,0.975126536177898,-0.0728243083602635,-0.182995968119902,0.0634603371125266,-0.100865105871546,0.389882992496465,0.244651983882931
113,325,-0.0135026116194946,-0.218187502466486,0.975863013073781,-0.0754291930832083,-0.180572217983593,0.063685605261937,0.0174395870511463,0.47991324307236,0.113586455721814
114,326,-0.0143795993366157,-0.220125125091814,0.976596036095132,-0.077124689609566,-0.177855637470552,0.0624990147890444,0.0767612879138817,0.545840503580468,-0.0252259578148564
115,327,-0.0153464891177651,-0.222044323502375,0.977307815160598,-0.0801579738943154,-0.173802234122355,0.0607965222774828,0.0533985479333454,0.616945964798487,-0.0864699949531404
116,328,-0.0163346685565118,-0.223845366504109,0.977989980923078,-0.0838381933580501,-0.166591239141405,0.0589708423584533,0.0748213095466406,0.67352722490831,-0.118719518287961
117,329,-0.0174339119099021,-0.225595657612068,0.978622978507461,-0.0902387850255243,-0.159295495192151,0.0559069098312797,0.0539526620833869,0.744337229545623,-0.197976347759824
118,330,-0.0185499510822615,-0.22718519498443,0.979193446528223,-0.0956211033386964,-0.148646980573935,0.0528924907582761,0.0119116828165319,0.807999171047592,-0.199807010876925
119,331,-0.0197224760892205,-0.22865232179808,0.979682178000294,-0.101114131246491,-0.136646034655087,0.0474332575548902,0.00209006555875145,0.795971499608836,-0.377647846636948
120,332,-0.0209054377737859,-0.229999549096103,0.979696281542309,-0.103394412273985,-0.124257164065646,0.0390583692300827,-0.139890626168458,0.816837911693842,-0.539716782816025
121,333,-0.0221451233048159,-0.231296553279438,0.979666192459657,-0.106015830119826,-0.113251607939123,0.0310728008448872,-0.237241368925918,0.711423650306604,-0.582694294360332
122,334,-0.0238434602743773,-0.232966718822337,0.979445300980437,-0.11633812524454,-0.111890470498981,0.0231684592036674,-0.180181904794008,0.646565966399722,-0.535986440805452
123,335,-0.0260493739503777,-0.235091950774179,0.979152508403505,-0.131690687956641,-0.118341681154062,0.0151407851070646,-0.195176521534058,0.465880954210445,-0.567064701541408
124,336,-0.0285918432594105,-0.237506273630403,0.978778896455465,-0.150637357275138,-0.130172976598015,0.0080495137247568,-0.111593891431416,0.350477826538418,-0.45559519446476
125,337,-0.0311437178339982,-0.23992884588671,0.978337063029834,-0.169148225367781,-0.143321218601118,0.00175959206372927,0.0705528804519945,0.261464976949761,-0.302486845230373
126,338,-0.0335232195685107,-0.242245552768319,0.977852233444779,-0.183129380882458,-0.155477304190514,-0.00346822947988395,0.192121525014084,0.214988069489419,-0.139045931567623
127,339,-0.0356577268665089,-0.244372958234375,0.97734946161061,-0.1918437205657,-0.16476260408396,-0.00879432346817,0.375047858432053,0.220813335870509,-0.0794357031537802
128,340,-0.0375517511060048,-0.246287174200217,0.976847567594208,-0.196111578947167,-0.170706718931191,-0.0134369480324366,0.529848712521111,0.29220196250654,0.011020267865331
129,341,-0.0392304328193568,-0.247939588761237,0.976363643227279,-0.19416227507673,-0.170236333202325,-0.0181138571946931,0.527120828997273,0.25087416954712,-0.0722717763872271
130,342,-0.0407041469887199,-0.249357738148521,0.97589934960221,-0.186190661826116,-0.165354576847779,-0.0223470879935712,0.467261915552895,0.325453671091493,-0.124800878878041
131,343,-0.0419912905837165,-0.250532972229194,0.975457241340539,-0.172632462747577,-0.15506134000809,-0.0260998592405062,0.3548471508616,0.3464283043229,-0.213054506584577
132,344,-0.0430905731421955,-0.25152986922223,0.975043483426569,-0.15742353766156,-0.142752002577475,-0.0284133090037162,0.258744463018177,0.386278919457517,-0.183977810131249
133,345,-0.044132177378703,-0.252307429090075,0.974648201615855,-0.142015439138357,-0.127174561396757,-0.0302820480188487,0.228204534799835,0.419049658847531,-0.212660848904576
134,346,-0.045104297771957,-0.252895853309159,0.974278099269512,-0.128248977144248,-0.111133591227321,-0.0315345435075974,0.225615577630782,0.424573317333239,-0.19634088944858
135,347,-0.0460426697149877,-0.253295606366092,0.973933931960134,-0.117578285766427,-0.0941275572128071,-0.0321322778509987,0.178269911625896,0.463859235272586,-0.158915901103706
136,348,-0.0467740847135853,-0.25350331374126,0.973864041141011,-0.103389708014686,-0.0759932303897457,-0.0305746793183049,0.130700083866552,0.382496820240435,-0.188698947914098
137,349,-0.0478369783839723,-0.254044810978016,0.973697450761085,-0.0947496181972983,-0.0630350194128676,-0.0297155525339932,0.117632863982018,0.347775183783367,-0.182476322469492
138,350,-0.0482069445541611,-0.254077740928358,0.973484600599891,-0.083163895434362,-0.0468194280101012,-0.0288714560462014,0.142473657019069,0.264889248029354,-0.123874354939419
139,351,-0.0487804929628806,-0.254175480020026,0.973255503869156,-0.075849038338725,-0.0329581164206628,-0.0281711660351571,0.141809459340668,0.270354050885014,-0.0898217733916205
140,352,-0.0492470876930949,-0.25408536704223,0.973022030743587,-0.0706690102354276,-0.0193860366617677,-0.0269847936193988,0.200616135066788,0.208539470146509,-0.0075494027522832
141,353,-0.0497904533625105,-0.253929069445272,0.972790694219639,-0.0682498941116109,-0.00828899502576112,-0.0255900287847915,0.252333338935094,0.248444139872799,0.0716086529393464
142,354,-0.0503611283417425,-0.253660926865269,0.972564843808006,-0.0670796641181198,0.0019103819339447,-0.0244871629305544,0.317131758778021,0.252140047596611,0.0866222643346213
143,355,-0.0510027269813441,-0.253298221924244,0.972346964153859,-0.0679211153034103,0.0121948982766018,-0.0236606446178371,0.241813914753571,0.279071734519518,0.0655527035514361
144,356,-0.0516821258246996,-0.252841443150707,0.972139749571861,-0.0677037344584295,0.0222027517362557,-0.0230634943655803,0.228914147997316,0.296572627793148,0.0141766577118385
145,357,-0.0523919980671486,-0.25228389231623,0.97194753044374,-0.0668932808024449,0.0329656740137662,-0.0223968407685683,0.194081416174218,0.311597644978331,-0.0291394352945654
146,358,-0.0530942713989169,-0.251642523390873,0.97172714559953,-0.0640988610560595,0.0430015918475052,-0.0216857548082781,0.128021796060766,0.261063861579499,-0.0717690926304589
147,359,-0.0537319641563674,-0.250905615824599,0.971550629682591,-0.0600734983502293,0.0538130387976594,-0.0208198621089301,0.0808996455578253,0.232294194655948,-0.116070996764337
148,360,-0.0543199042012939,-0.250107956913499,0.971405957481333,-0.0561140442124522,0.0631175596946233,-0.0196724179492924,0.158661093415556,0.287236331233612,-0.0709847516590376
149,361,-0.0548786357784763,-0.249235992708393,0.971287617240792,-0.0531575130238835,0.0711424849793564,-0.0188724519685685,0.138550093993341,0.294163993969935,-0.0782881191683527
150,362,-0.0554389723695301,-0.248316614200288,0.97119371383054,-0.0504817812515972,0.0780481298357959,-0.0177784772619023,0.13791800115292,0.275988894967214,-0.0688459199345931
151,363,-0.0560230373883596,-0.247344839640139,0.971127490921666,-0.0480587939423922,0.0846096593454279,-0.0160199538868456,0.163506811479852,0.292268613341548,-0.0306704825162117
152,364,-0.0565894098822991,-0.246358305966727,0.971095620690888,-0.0457994649989037,0.089327614466436,-0.0138240715373272,0.180121823060893,0.282374110737617,-0.00340579221108433
153,365,-0.0571884613618686,-0.245284670166703,0.971091201908825,-0.0423184000470151,0.0943677098796985,-0.0113345531531836,0.159410012888533,0.247032117113096,-0.0155008976121628
154,366,-0.0577877371804502,-0.244110925453919,0.971086543101205,-0.0415487314414167,0.100252855441078,-0.00785154579868778,0.227953662016116,0.258199200691559,0.113784225730284
155,367,-0.0583753403513663,-0.242782697127242,0.971152947032624,-0.0405260037454186,0.10906100279037,-0.00428972483633084,0.155272886485811,0.218825090468733,0.0821076387191961
156,368,-0.0589508946379879,-0.241338661531501,0.971284758127989,-0.0400157758165905,0.117964614059317,2.42790013312126e-05,0.239570451566588,0.25138163521453,0.198495582516086
157,369,-0.059521030620353,-0.239773348177615,0.971500798999289,-0.0399935865855797,0.129076171765806,0.00550427903876802,0.016267966938713,0.370267346134875,0.222351482299975
158,370,-0.0600619110228764,-0.238188355110708,0.97175953610189,-0.0389225542645929,0.139207330384531,0.010528110624667,-0.109127001615722,0.463913994182503,0.14210567206165
159,371,-0.0604694977187216,-0.23714156885859,0.972000783199079,-0.033532202357436,0.135976876238782,0.0159283894257409,-0.0231891672153438,0.255787203104098,0.255549862102183
160,372,-0.0607160266397759,-0.2370123062226,0.972192957089791,-0.0274553145911177,0.117150333128992,0.0195476574587806,0.0727644898091115,0.217795801960145,0.192471137843427
161,373,-0.0608096459193649,-0.237513356254266,0.972311029414568,-0.0216008468714343,0.0898787252141482,0.0222501971465978,0.0384579455080554,0.183441988965626,0.246539197414598
162,374,-0.0607826526043139,-0.238278224844623,0.972370491543698,-0.0149787540652749,0.0603032597300503,0.0237610161301021,0.0557562933447005,0.0196573897388542,0.266732467800815
163,375,-0.0606768228695049,-0.239054221117988,0.972377476288871,-0.00895710892915018,0.0348314653958776,0.024282262222348,0.109711984372288,-0.0671819113938697,0.290113125506321
164,376,-0.0606778961015948,-0.239080681782516,0.972093390631174,-0.00687492180971633,0.0286231264697282,0.0205987205637972,0.143538673437678,-0.0637188104637168,0.287755058507965
165,377,-0.0605216816764777,-0.23941029425019,0.971982899643372,-0.00129222039420289,0.0190081340737682,0.0190377619256395,0.133674289811352,-0.0653929857057232,0.249269394238895
166,378,-0.0607034919808376,-0.23872179049346,0.97187661907661,0.00067981946079114,0.0231626696875195,0.0183527311532714,0.0463040115658581,-0.0123528590100911,0.266010846040204
167,379,-0.0606188000247454,-0.238301368501379,0.971780980750689,0.0059481001418662,0.0270508040998055,0.018332865020179,-0.0486224640650516,0.0581495637525782,0.273287815780748
168,380,-0.0604843698002501,-0.237659456989937,0.971703479280681,0.0115974733280775,0.0333831745106582,0.0190785835878649,-0.0186442171751718,0.151039344898406,0.33196296206759
169,381,-0.0603062743044328,-0.236882524269396,0.971652541781268,0.0157183765657195,0.0409347785467251,0.0199632535425638,0.0601792771355299,0.107269910823521,0.366042286435852
170,382,-0.0601431099532005,-0.235962217130185,0.971634426936771,0.0195103154333819,0.0490539599887643,0.0201489554770345,0.0384744644713303,0.112701259071233,0.288110858472699
171,383,-0.0600070933262766,-0.234997691976099,0.971650676341715,0.0228620185824404,0.0550770883613389,0.0204840243507251,0.110027183240823,-0.0488732115660077,0.249420941523814
172,384,-0.0598992767338579,-0.234081387285913,0.971697102175044,0.0228251316877909,0.0579731964565069,0.0198353094432057,0.100454231126093,-0.0421386611978609,0.162462260162751
173,385,-0.0598633638507436,-0.233234850526803,0.971759877092633,0.0206031226561797,0.059326665161137,0.019431612398668,0.0960657041813631,0.0176506227235655,0.163406074286156
174,386,-0.0598419468450448,-0.232423086133922,0.971838078973253,0.0175607422149714,0.0597821939261879,0.0185203813380684,0.0548885124929397,0.0303255521329832,0.0959675101604436
175,387,-0.0597695278432131,-0.231612295722596,0.971925138843494,0.0171986380212611,0.0615068079602682,0.0174302710453289,0.0147934937441802,0.0285098941644545,0.0120434601017438
176,388,-0.0596122660152071,-0.230779337466651,0.972011902777766,0.018603029561249,0.0644794308266498,0.0160028698062924,-0.0073813905187833,0.0549972906412503,-0.0414969939983088
177,389,-0.059358156993238,-0.229896736131602,0.972095603420927,0.0221881401499416,0.0696002671671901,0.0144017085828012,0.0749171198094989,0.0954919280703962,-0.0786296235148043
178,390,-0.0590085214728439,-0.228954308788626,0.97218000775288,0.0267923669006975,0.0755418785285743,0.0134184859096601,0.0792013884808414,0.0987048267396487,-0.047802159366187
179,391,-0.0585631305788112,-0.227942056570159,0.972267279249152,0.033180154239513,0.0816970273345882,0.0126593832981929,0.0529099010084373,0.104922253477565,-0.0475210503234916
180,392,-0.0580125949754016,-0.226843613153022,0.972357662795693,0.0415754490200134,0.088580347958843,0.0120979568912501,0.0745804768050745,0.0857686952777988,-0.0505955493092361
181,393,-0.0573706234833169,-0.225680032263777,0.972452915521621,0.0496025863276511,0.0953088190318479,0.0123382337425842,0.145967786998443,0.00798598036004843,0.0270721066990797
182,394,-0.056650031566352,-0.224482561528127,0.972557456110016,0.0574602063554775,0.100882887623754,0.0127501246268989,0.234021392263116,-0.0518199506499593,0.0595639693073736
183,395,-0.0558641153783361,-0.223266941136519,0.97266896918927,0.0648787747168136,0.105335720670094,0.0135043426439919,0.290897571777628,-0.04302572591014,0.109776534242388
184,396,-0.0550252852922015,-0.222025505422393,0.97278613289735,0.0726275764247403,0.108998639554258,0.0137932578581568,0.293879917060589,-0.133522988595601,0.0627063971915253
185,397,-0.0541284925666659,-0.220756063317416,0.972900573483029,0.0811512629034337,0.112688749706042,0.0138971475569116,0.321620698692383,-0.257813453766181,0.0263858902142363
186,398,-0.0531779837776802,-0.219470926633401,0.973000703170799,0.0901077572151291,0.114575675539121,0.0127545718556266,0.338389466686161,-0.19786583828883,-0.0613619025245068
187,399,-0.0521542963885684,-0.218160674559237,0.973078604263189,0.0994105438084198,0.11748888463493,0.0112417023431284,0.322427149717669,-0.241248043655545,-0.114713693511837
188,400,-0.0510451938968769,-0.216820016076853,0.973125163582691,0.109536650952599,0.120453100937969,0.00894978417825515,0.26553605610341,-0.219239895800793,-0.179541765003644
189,401,-0.0498731095288105,-0.215401904563732,0.97312989897125,0.118635375774227,0.125881065396925,0.00595279787777928,0.227281891464128,-0.144467072567685,-0.22997402503934
190,402,-0.0486929274603546,-0.213897130862333,0.973086194296196,0.122599182035118,0.130864620399936,0.00311946913628296,0.180888766460777,-0.125751385842876,-0.155981852126817
191,403,-0.0475823921222226,-0.212332929061337,0.973005828513246,0.118715988280971,0.134378879989161,0.00080785395694501,0.126497902958918,-0.138491698095763,-0.062149571719181
192,404,-0.0465517847815441,-0.210748500529855,0.972892122835295,0.111119771812054,0.135116135027493,-0.000482894981828824,0.129434329942045,-0.144278457639289,0.0518739380701053
193,405,-0.0456079335267343,-0.209156127244683,0.972876322120233,0.107166375977061,0.137337182651058,-0.00109268777266303,0.188676667318122,-0.27382158478333,-0.0406075196340608
194,406,-0.0446854554442151,-0.207609978947588,0.972914306923502,0.105536246697095,0.139217215708461,-0.0014379943235807,0.228023913304393,-0.349750698545735,-0.0737260559082527
195,407,-0.043828057114651,-0.206165309942605,0.972910134735656,0.101385359431401,0.138091130165202,2.8365119036976e-05,0.138443754416945,-0.230324603024285,0.105212111793939
196,408,-0.0430888920099717,-0.204836184746108,0.973002045823143,0.0929933299230035,0.134838383943054,0.00312075122786579,0.0658663409999294,-0.214537658674293,0.24218364674441
197,409,-0.0424650941363839,-0.203580525227634,0.973133977458133,0.0802106472362396,0.129815158970297,0.00722981498252014,-0.00392295237109643,-0.112302976183537,0.358473555607599
198,410,-0.0420891669406093,-0.202434691656768,0.973274042330492,0.0617929016108433,0.12189732685153,0.0120711192559907,-0.0719319189455441,-0.125199604001329,0.460271181532415
199,411,-0.0418145824537094,-0.201329606422859,0.973409643722395,0.049690303429468,0.117311136937005,0.0155944294181407,-0.139263957189723,-0.29547905820225,0.358344858074869
200,412,-0.0415598410386177,-0.200242874982713,0.973529498361433,0.0425305109831417,0.11558685587032,0.0177468508120997,-0.33134685189491,-0.462038794269757,0.243393858227893
201,413,-0.0412224686776054,-0.199130430765309,0.973626900359888,0.0433858926249789,0.117806094906158,0.0182466625369762,-0.387555120544958,-0.436161397239938,0.124535725078513
202,414,-0.0407896778909296,-0.197997851665497,0.973703495205728,0.0439431207501255,0.119555544050717,0.01973686273237,-0.600131341293216,-0.481944766672943,0.252577458479462
203,415,-0.040325824369974,-0.196845257239147,0.973793454061359,0.0380194827416236,0.122179415543777,0.0255827438135759,-0.607823603741986,-0.3754418178298,0.702244911946035
204,416,-0.0398386866243055,-0.195621588609946,0.97393024544745,0.0310263687391979,0.12761596851657,0.0315851417773226,-0.651261590541831,-0.130648208360994,0.796985540758388
205,417,-0.0393482456886898,-0.194316432193241,0.974122035366196,0.0239225134526915,0.133821841035427,0.0380303251039274,-0.526212415083969,-0.120813673699497,0.85081820049005
206,418,-0.0388693699516501,-0.192971849856899,0.974368590896341,0.016798834857223,0.138890935834658,0.0445779738342645,-0.47403986772124,-0.0466860070413342,0.867342796128958
207,419,-0.0384326737614844,-0.191635514324034,0.97466695953041,0.00909085187145842,0.14138729368311,0.0512420324047019,-0.290586347607261,-0.00176073050472324,0.879964664276563
208,420,-0.0380251363230116,-0.190335351244758,0.975040751234135,0.00380772747019478,0.141777194502445,0.0553376246115383,-0.324633588341162,-0.17637851416777,0.641846872872594
209,421,-0.0376122877239779,-0.189069465826624,0.975455470260654,0.00337458199347546,0.140648459442984,0.055338295898433,-0.4335287075883,-0.141967025638495,0.268917858327196
210,422,-0.0371784807316703,-0.187805356236021,0.975867780367106,0.00696659287654704,0.137696333662528,0.0514470217777293,-0.398335479185384,-0.239064841553623,-0.102141234044315
211,423,-0.0367039387942718,-0.186551547872139,0.976240524407015,0.0135649961077624,0.132815758915712,0.0434808471236003,-0.469777469295162,-0.419949239970015,-0.486544605326621
212,424,-0.0362301021762108,-0.185362762802229,0.976551179311062,0.0204316687476505,0.124722479612541,0.0339160925160237,-0.385758393651146,-0.306395518666336,-0.687894339602659
213,425,-0.035857183491581,-0.1842431558602,0.976798503190733,0.0251051019933468,0.114863100428151,0.021996082233453,-0.206492000175895,-0.237032200361911,-0.976715975417445
214,426,-0.0355112070188579,-0.18320930946514,0.976973118792021,0.0319903461045087,0.10300218318373,0.00781029355603585,-0.0399762775720797,-0.26981970402023,-1.2273820903388
215,427,-0.0349291773386396,-0.182123728342195,0.977093060005036,0.0450765521320753,0.0934714605283035,-0.0066450118940472,0.0839387844237071,-0.365509454074575,-1.35506446852824
216,428,-0.0343080129381814,-0.181196449711883,0.97715736438194,0.057072491438537,0.0798480344954211,-0.0199325604861195,0.145984216516106,-0.469826660608857,-1.37269279456803
217,429,-0.0335384475806608,-0.180450600426603,0.977158078012111,0.0655780917889069,0.0622237111376259,-0.0310335384056307,0.40889936098614,-0.667693770295694,-1.28517071068115
218,430,-0.0327705897020049,-0.180067502850159,0.977137892537607,0.0689540495263091,0.0370488764306267,-0.0379922815999784,0.526102361697559,-0.72520215996797,-1.05980978676553
219,431,-0.0321953136279224,-0.180198788038507,0.977139392298367,0.0650518665755495,0.00474082177636914,-0.0425352681736574,0.660517090006617,-0.752350545285436,-0.937927322433647
220,432,-0.0323801253413254,-0.181093255544753,0.977187023980902,0.0477594980749542,-0.0320918773544718,-0.0445000403611771,0.779681457619999,-0.647867479398673,-0.793053395070155
221,433,-0.0336102995049654,-0.182826474588366,0.977253268978456,0.0133754816001798,-0.0789396741305682,-0.0452517018652518,0.791493410836294,-0.783167638047269,-0.711400688605078
222,434,-0.0355112179560766,-0.185124393873518,0.977287889773292,-0.0268677992085594,-0.125604302595686,-0.0455844879640845,0.85803714833351,-0.739119331709391,-0.608363236723737
223,435,-0.0375824181212294,-0.187631884417435,0.977287455813753,-0.0600367141421813,-0.162685773453384,-0.0464042631838003,0.876157881889152,-0.48676593027666,-0.57718923090535
224,436,-0.0394516661657903,-0.190089287484479,0.977257935238463,-0.0827967179325799,-0.188251348974534,-0.0485351235100786,0.726202115633506,-0.498167905181304,-0.707313919964723
225,437,-0.0409737677909886,-0.192348793913307,0.977194039889546,-0.0966483399181792,-0.200760407952303,-0.0500483779167269,0.622814577191753,-0.378669651175829,-0.648667868477593
226,438,-0.0421888006716737,-0.194402391346981,0.977123821602369,-0.107686588987579,-0.206185701623258,-0.0482595851239711,0.767905897786952,-0.0325479038533502,-0.382057506191766
227,439,-0.0431585381374402,-0.196258651804215,0.977058089743451,-0.116169232616925,-0.20665998566491,-0.0474929381358251,0.82307032420461,0.0900533827490696,-0.467337549637987
228,440,-0.0439009032155772,-0.197987911471091,0.976963155780865,-0.118066270520502,-0.206536328286904,-0.050184270754458,0.6903083943777,0.152473995428698,-0.704717578868091
229,441,-0.0444407905036462,-0.199632219475102,0.976805021467658,-0.114624665701577,-0.206386906168077,-0.0568711893841321,0.43049304533899,0.0712644754336689,-1.01056674884931
230,442,-0.0448394111640173,-0.201237982171575,0.97656843365593,-0.108984988299002,-0.207711972801888,-0.0635075470296392,0.364499456654615,0.0213177904956658,-1.00494945425997
231,443,-0.0450839862695309,-0.202840023455598,0.976280073927844,-0.0982790480591534,-0.211209471313551,-0.0677505973613854,0.415718657173521,-0.344093489443945,-0.765503600750993
232,444,-0.045139402781516,-0.204474842404998,0.975932197414154,-0.0860851976751756,-0.219577343395839,-0.0760188154606558,0.14076966912448,-0.941290149223825,-1.12449060375412
233,445,-0.0451753820058835,-0.206193998718852,0.975525764821097,-0.0787378700677646,-0.222850358664455,-0.0758528382071999,0.259082593942067,-0.361761526056706,-0.234310087965573
234,446,-0.0452149709424089,-0.207947550680774,0.975142816295255,-0.0706061023378098,-0.224397288318326,-0.0713884177961731,0.527372753723868,-0.413551172261246,0.14261907088454
235,447,-0.0452300837352932,-0.209757429956427,0.974783340110162,-0.0608984846152307,-0.223861643378951,-0.0689017979517585,0.156967100917355,-0.809807318369958,-0.0479944479868886
236,448,-0.0452585796073357,-0.211651145387417,0.974447640244504,-0.0566180217780914,-0.220737070716068,-0.0643086047239858,-0.29108580303889,-0.524262264979871,0.128371786730082
237,449,-0.0453366250924852,-0.213637295121723,0.974141953979834,-0.0535400808070011,-0.216528148822327,-0.0586906133523998,-0.444059656737463,-0.323868204808906,0.28771131496433
238,450,-0.0454422741027021,-0.215720783423265,0.973870758362289,-0.0521367433629501,-0.214249700691703,-0.0528478123140001,-0.496492474411309,-0.181886888147812,0.346375512380695
239,451,-0.0457465332167135,-0.217710176893384,0.973581766107504,-0.0576968636508745,-0.208859377499997,-0.0483618844293583,-0.476125878331545,-0.0293688504379859,0.365307419819504
240,452,-0.0462364543207146,-0.220700927988534,0.973335850711598,-0.0646081571954686,-0.218725032498732,-0.0423864750317961,-0.401401620962706,-0.256908559652872,0.521836518022016
241,453,-0.047257587071405,-0.222609793503919,0.973129737411349,-0.0805887281793166,-0.217182191226049,-0.0346108821545252,-0.604411986433943,-0.227388191992977,0.716260936917771
242,454,-0.048208091653803,-0.225135861240325,0.972971409223692,-0.0989092358212747,-0.218358051332409,-0.0260151212506693,-0.867534703921696,-0.0385563453465006,0.834948661173992
243,455,-0.0492791810047828,-0.227399662529617,0.97287540137365,-0.116809648765071,-0.216931430926358,-0.0154492354880107,-0.845038548774727,-0.18984341242658,1.04342239493468
244,456,-0.050345681477469,-0.229596750564641,0.972848570510839,-0.131947014232397,-0.210876958759706,-0.00367869607655463,-0.904881012003963,0.0742088815121809,1.21220379364479
245,457,-0.0513991032175439,-0.231820811902162,0.972897610092388,-0.143859101129868,-0.206287021199416,0.0125728200205923,-0.645403458211228,0.176398450608116,1.62720927045983
246,458,-0.0523970187385824,-0.234136789595161,0.973011641954532,-0.148302985721737,-0.198647520493807,0.0264724665769396,-0.575831570879465,0.536484599138366,1.48077967495601
247,459,-0.0533416227230161,-0.236466498963586,0.973147725744666,-0.14325179685566,-0.189137418169338,0.0341350893300532,-0.361735598865326,0.86760152809064,0.976829374486107
248,460,-0.0541660652023816,-0.23866551446263,0.973248284103061,-0.125219891094459,-0.178343255010485,0.03219520224871,-0.543471121336851,0.717068949290784,0.108600819539131
249,461,-0.0549270019208536,-0.240734868232932,0.973274590645281,-0.0984518487197093,-0.169452811058695,0.0240368279436079,-0.795130700175605,0.523270844170663,-0.528783346249878
250,462,-0.0555783844073283,-0.242401611624275,0.973223877479177,-0.0727752418831881,-0.161688632771155,0.0132271622867278,-0.908801130453959,0.399241565181671,-0.803255264485966
251,463,-0.0562357005961,-0.243768419838204,0.973122810506906,-0.06180472058038,-0.160788089654194,0.00618311107817627,-0.772451831657791,0.148085598288545,-0.413379008882434
252,464,-0.056756119205041,-0.244883174383712,0.973027670769895,-0.0614328633596405,-0.162189708884003,0.0030523066042141,-0.711614144893047,-0.0779645015724404,-0.00366048872709788
253,465,-0.0570952423657813,-0.245855590884049,0.972969490936578,-0.0640037607138512,-0.161706189971558,0.00318603074152706,-0.885834191111893,-0.229207900279109,0.242876347073819
254,466,-0.0572236408833264,-0.246783891271182,0.972951755842569,-0.062231329386662,-0.161800652199049,0.00517080294448139,-0.645813217193765,-0.461124341561381,0.385030010532781
255,467,-0.0571832760236927,-0.247754860126531,0.972963320424841,-0.0522848494646199,-0.159715694358004,0.00860273773754761,-0.0225979190095136,-0.218153517260033,0.529492961059005
256,468,-0.0570367076602227,-0.248823361769051,0.972996995368327,-0.04135889031725,-0.158072202221705,0.0121118201810744,0.250697443931189,-0.128919349926742,0.565620648834659
257,469,-0.0568353937766272,-0.250084460750412,0.973041470039485,-0.0287478600762599,-0.158390145698109,0.0146410498531311,0.251107997743661,-0.0628017326141588,0.473176586127028
258,470,-0.0566436060332883,-0.251585474452525,0.973086587220403,-0.0190981474271249,-0.160661756257548,0.0167899077691137,0.180167800303032,-0.0361069105789472,0.427277091779127
259,471,-0.0565334119372852,-0.253279874966381,0.973132586858103,-0.0157414098987906,-0.162537640214074,0.0187689314934394,0.0860242440078046,0.0443456143461863,0.405976994291577
260,472,-0.0564430406460024,-0.255036942217209,0.973186921034572,-0.0158557915649572,-0.163428574247494,0.0207155200381918,-0.100278134294064,0.176990056219815,0.404633912001912
261,473,-0.0564932127157982,-0.256840757496127,0.97326060069112,-0.0197608005179046,-0.161958757530254,0.0228107259215912,-0.238040994065275,0.201649985529786,0.403696148201209
262,474,-0.0565850798932244,-0.258557241797892,0.973362816750868,-0.0222217962837885,-0.158301173964761,0.0243237722211967,-0.238547662357773,0.217798983256502,0.316794558986703
263,475,-0.0567885444064905,-0.260228969116146,0.973490302097159,-0.023531261276862,-0.154530454496849,0.0250532557682028,-0.23243116608241,0.202481428747538,0.186814026543036
264,476,-0.0571220457389676,-0.261850250635866,0.973738384249799,-0.023799617195622,-0.149382306368522,0.0251344187279039,-0.13464346688679,0.270414943271687,0.00260459633961806
265,477,-0.057426088210801,-0.263292652138398,0.974071995508635,-0.02532443027731,-0.142155491727185,0.0259958425527515,-0.161868987502636,0.292976326383948,-0.00592956101918187
266,478,-0.0579598575030582,-0.264716808914345,0.974453175380706,-0.0296704452973673,-0.13519335592106,0.0257124957925984,-0.158979429916682,0.293395490155013,-0.155037237828905
267,479,-0.0585402880655292,-0.266007609968499,0.974877108769145,-0.0354796092935409,-0.126362010343203,0.0261306847938032,-0.1059572047176,0.236526158505752,-0.151826050387136
268,480,-0.0592697617464377,-0.267266844341593,0.975334607854463,-0.042439095563443,-0.118798674203636,0.0260016355902595,-0.0347353053091193,0.247229813091171,-0.213619868120829
269,481,-0.0600850560526455,-0.268468110809506,0.975818434325155,-0.0503424536627582,-0.111493066653211,0.0263760406596215,0.0405760749402863,0.202306263294595,-0.199173093555425
270,482,-0.0609733168026199,-0.269672036928184,0.976319703664779,-0.0571677840725175,-0.106744309999148,0.0262340746844622,0.0776389894646722,0.126713318007308,-0.254797488283778
271,483,-0.0618864928912837,-0.270884921056704,0.976824741748961,-0.063239672867481,-0.103820000952657,0.0257178240844414,0.0890048942308641,0.102651021566108,-0.296814294673958
272,484,-0.0627828058573308,-0.272150113700601,0.977318561908845,-0.0703427446715665,-0.104336793463907,0.0245970703938665,0.0627590052235538,0.0887632446489734,-0.308682402993936
273,485,-0.0637676612631863,-0.27344330400265,0.977763491494878,-0.0787033542783135,-0.107362840990795,0.022606448944269,0.148347781675492,0.0666922108525402,-0.295245895953175
274,486,-0.0647793244106421,-0.274734986735509,0.978149559390414,-0.0857233256619311,-0.110600561585326,0.0205101294428478,0.245111543642152,0.138880978207593,-0.219639012760181
275,487,-0.0658059128081799,-0.275989204184685,0.978465848088321,-0.0908905948893385,-0.113813022537683,0.0183927413949835,0.327649633052513,0.188252065804159,-0.123521064986909
276,488,-0.066818705177385,-0.277187206937915,0.978701409220396,-0.0936858846044066,-0.114964405157162,0.0163910096119547,0.310336716608048,0.250945694875818,-0.0605170237547725
277,489,-0.0677937986855176,-0.278303958281036,0.978842862592356,-0.0935494006918719,-0.113168537683536,0.013887814646278,0.219147291061928,0.295328525060291,-0.0763650257042537
278,490,-0.0687857121065272,-0.279344375418652,0.97804560403214,-0.0924382756514077,-0.108460338686651,0.00820197578851438,0.213362154914635,0.417622843402975,-0.0409204598992441
279,491,-0.0699404228027575,-0.280367822229484,0.977330701443639,-0.0954086648153298,-0.103233019510139,0.00272281831276033,0.19713555330528,0.426009456004722,-0.0472963383572324
280,492,-0.0713601412398656,-0.281521754152042,0.977036657593648,-0.100851394134444,-0.100565883379533,-0.00296187563741874,0.125416353654647,0.546562641246882,-0.0648235355821027
281,493,-0.0721793177575764,-0.282167946120843,0.976719212566646,-0.0961304028488761,-0.0895178099551174,-0.00767048733558112,0.0913986404579022,0.526740633344959,-0.105513949474689
282,494,-0.0732977980753012,-0.283037557968611,0.976332494348785,-0.0927098973401794,-0.082848987229528,-0.012043209755351,0.0808926410619175,0.525532014820846,-0.108707580347324
283,495,-0.0741070650583907,-0.283628768178495,0.97588737880578,-0.0860438767842823,-0.0736348656907739,-0.0155462691766314,0.113389108730293,0.489663860858078,-0.0346627970952087
284,496,-0.0748979443613138,-0.284206457587114,0.975396100241617,-0.0781813045604654,-0.0652172951048829,-0.0190116483170945,0.0986873581299183,0.49668584643383,-0.0519859724924738
285,497,-0.0755379028902739,-0.284673775533102,0.97487215105008,-0.0696233108756752,-0.0574638478860827,-0.0215065192411073,0.0870830365631696,0.34455742086687,-0.00920900065954329
286,498,-0.0761398036749181,-0.285100933281972,0.974331312214096,-0.0637886517668467,-0.0505885289823986,-0.0240113352099625,0.114171524597242,0.293622409718936,-0.000740145257089796
287,499,-0.0766969335358689,-0.285465478513696,0.973793694702647,-0.0591309469393284,-0.0441698670034062,-0.0258600873690133,0.137636177602095,0.222340869123861,0.0423976276520961
288,500,-0.077247680069508,-0.285803724567648,0.973277200778979,-0.0556790244468394,-0.0387393422738069,-0.0269394023086662,0.0957962685069426,0.179913358805967,0.0625928611201395
289,501,-0.0777830414222825,-0.28608871200735,0.972791928805663,-0.053057349944066,-0.0313537887132884,-0.0264582136118001,0.030051647310858,0.206918434670167,0.11416779676209
290,502,-0.0783166889321553,-0.286318103908831,0.97233987813068,-0.0508642488419832,-0.0253121771078057,-0.0257028236172193,-0.0704003520279294,0.171968527341126,0.0944139634728583
291,503,-0.0788936071130677,-0.286466623217269,0.971920035967634,-0.0523374583478151,-0.017876529490718,-0.0241798891416579,-0.0400637097233055,0.221627828855277,0.162075212652596
292,504,-0.0795032132364802,-0.286569842923,0.971539582958491,-0.0568516756682735,-0.0129144767735154,-0.0223647337393314,-0.0164026749639467,0.192703340551164,0.227084419603658
293,505,-0.080219065269169,-0.286570326523482,0.971178004243591,-0.0608707386886677,-0.00726091785578558,-0.0207683839583921,-0.0320885960779108,0.191162940112724,0.199562554116367
294,506,-0.0809593358594744,-0.286446771273795,0.97083843837888,-0.0629920912808512,-0.000487854111538934,-0.0195983875113634,-0.0133949672359574,0.17529697992376,0.127912416270413
295,507,-0.0816826775610835,-0.286216999403006,0.970515325167358,-0.0629707477675833,0.00618863381882784,-0.0186162736871099,-0.11154541989757,0.143642217079963,0.0599630944320052
296,508,-0.0823750097856187,-0.285912469636077,0.97020440324467,-0.0607897475510807,0.0133844522584176,-0.0177493547022039,-0.147270272861377,0.211227746925585,0.00303767368733769
297,509,-0.0830205209111473,-0.285552906162288,0.969907858289265,-0.0574499901856039,0.020982510215662,-0.016942575344082,-0.0697622428531999,0.159500416327114,-0.0361981184233036
298,510,-0.0835753994355948,-0.285163915818643,0.969631957029119,-0.0511003500252416,0.0278420609782293,-0.0157097425482311,-0.0179905606021539,0.142806495125464,-0.0512228438768898
299,511,-0.0840527931102489,-0.284777236990368,0.969374057150213,-0.0458097398768352,0.0321227126114542,-0.0149454639410711,0.0797287461048981,0.156414710633574,-0.0384268376804125
300,512,-0.084482469152565,-0.284407114811724,0.969133024768636,-0.0424592504070195,0.0356487484344905,-0.0144578632448223,0.170129292275864,0.152505012132304,-0.0264278282587612
301,513,-0.0848931172318884,-0.284087668853569,0.968903344567794,-0.0405360040607971,0.0361293114689775,-0.0147192780021828,0.200408539845414,0.18116755920342,-0.049667272744649
302,514,-0.0852929971815406,-0.283808438220599,0.968681795447404,-0.0375406464339413,0.0363575905929391,-0.0153381091820443,0.277017275607861,0.210704895179763,-0.113943580582711
303,515,-0.0857101687654477,-0.283611807858601,0.968400014570831,-0.0358523550228307,0.0345398816296741,-0.0167966052247692,0.311614434626338,0.19251383911182,-0.167062392385021
304,516,-0.0861364571147087,-0.283404034480566,0.968179384105724,-0.0352041945298805,0.0337404248705735,-0.018423201310338,0.325621145548252,0.240448354704171,-0.205967865971989
305,517,-0.086596879648373,-0.283235926274245,0.967997331745886,-0.0348956322875392,0.0336165046371588,-0.0197837351111697,0.302837407777186,0.2992579203918,-0.239551538137717
306,518,-0.0870613335686627,-0.283042374710357,0.967845573529715,-0.033597054861994,0.0333335681903983,-0.0205212052360511,0.25796904239901,0.260181232659498,-0.244027256191386
307,519,-0.0875303116928394,-0.282822284416171,0.967723513461832,-0.0323820559563114,0.0353473884897767,-0.0199783190212862,0.272012983106931,0.29396199625217,-0.178803405676365
308,520,-0.0879853805715121,-0.282556828620405,0.967629204293157,-0.0320910796332017,0.0373386268256374,-0.0190303086050226,0.233973412108107,0.275155170073556,-0.140892319080445
309,521,-0.0884327771553295,-0.282238743071852,0.967560391220287,-0.0332533430865252,0.0407101334494105,-0.0175388821783003,0.226307176281709,0.254551534455578,-0.0825206876764184
310,522,-0.0888501312559813,-0.281878993518241,0.967516817139193,-0.0341614416536648,0.0442115883577276,-0.0159012841894823,0.16239117525117,0.316699885581132,-0.0623076499664668
311,523,-0.0892238752943675,-0.281482872604153,0.967499228236939,-0.0336190591189362,0.0483653898397344,-0.01433292318422,0.111796194189416,0.329879375491496,-0.0995117894734439
312,524,-0.0895294777986417,-0.281090919187986,0.967511982623324,-0.0328952565672828,0.0512590603084412,-0.0126488911854456,0.0905915607052888,0.310205444334738,-0.101716238759671
313,525,-0.089817304786856,-0.280686005241647,0.967539720383607,-0.0309533340569168,0.0546620227395599,-0.0107860474862279,0.0819188495712439,0.371373797197873,-0.0964062433915441
314,526,-0.0900227809858354,-0.280241712126581,0.967586809455916,-0.0277446600896998,0.0567768350106544,-0.00900717511608293,0.0494376639098222,0.379131291674893,-0.0856531723551532
315,527,-0.090151844766783,-0.279731768181375,0.967654481155589,-0.0237496843003882,0.0601444386749524,-0.00636812107134771,0.0741038440303919,0.314168236174434,-0.0276253976740015
316,528,-0.090191768804525,-0.279162942562591,0.967745849345161,-0.0174044959071259,0.0625486450848457,-0.00313866911008046,0.0884955934444989,0.29125369150117,0.0110146859857609
317,529,-0.0901321384417975,-0.278511976015185,0.967865459079536,-0.00928995020020631,0.0655374140797894,0.000337943609342644,0.118104528507197,0.224845815920392,0.00281752769857486
318,530,-0.0899911747964337,-0.277814407066488,0.967982569420826,-0.000762205218528317,0.068182450386112,0.00317116030196381,0.170998257248055,0.17341153230223,0.00782207451797894
319,531,-0.0898562161400654,-0.277201282145138,0.968063507658412,0.00537837860544768,0.0676354371746345,0.00447842940980291,0.154968022014732,0.175744144995691,-0.0264474572051699
320,532,-0.0899845526195345,-0.27700375945133,0.968157448549644,0.00395228824550541,0.0603967265422754,0.00937575848312675,0.177978453092014,0.208551658148333,0.351992280065694
321,533,-0.0904499164863902,-0.277414710404943,0.968273068083077,-0.00490419263054599,0.0439872371239286,0.0134748796274684,0.0924702771864531,0.190878734773715,0.317335816954517
322,534,-0.0910280919031618,-0.278229127408851,0.968334420428725,-0.00924000789877273,0.022766843481855,0.0160931544029746,0.0149151415680801,0.138663779479502,0.191948595223889
323,535,-0.0915197956215958,-0.27907261877545,0.968364854655074,-0.00839319596587372,0.00478674620336908,0.0191321696283628,-0.0619403907824787,0.0509421160959952,0.244147632631045
324,536,-0.0918503393725649,-0.279742707813769,0.968374000281523,-0.00704373576210127,-0.00780322620353333,0.0211008434016492,0.127870112173703,0.13099803511983,0.26473763888075
325,537,-0.0920152857424564,-0.280161365347117,0.968375057049259,-0.00666795046667458,-0.0168592174323433,0.0230937797640721,0.1059281274166,0.0557858861884766,0.397726607717532
326,538,-0.092043383248531,-0.28032149698133,0.968376480088259,-0.00636503227154718,-0.0228795379166908,0.0240922173918694,0.0893892980726107,0.0140721265448109,0.422773393476786
327,539,-0.0918657806300274,-0.27978729257245,0.968117255583472,-0.00305769174761028,-0.0130829549118027,0.021521970496333,0.13400096199328,-0.0322683568942604,0.479158050487507
328,540,-0.0917237681553723,-0.279433534616595,0.968164534943403,4.4320932731772e-06,-0.00716028396968055,0.0221111917560393,0.110951835387242,0.02497636402951,0.404930164313077
329,541,-0.0915343890200611,-0.278857868657713,0.968162534479564,0.00234408339218177,0.00268040329977339,0.0219441946262173,0.109847889864464,0.0652276165275119,0.362852371286164
330,542,-0.0912771998516159,-0.278116203714423,0.96818934176863,0.00674665500499544,0.0158013188349121,0.0217838513664812,0.0991787577588215,0.135628848776736,0.2879154082001
331,543,-0.0911371175995033,-0.277294457139611,0.968217560907286,0.0125046818785667,0.0300386097753584,0.0213315272438516,-0.0381233765884727,0.166560135041672,0.172667919651925
332,544,-0.0907364033822086,-0.276356150282355,0.968243597238918,0.020733624204735,0.042849527570516,0.0206665171752218,-0.0944190370145084,0.165676090480007,0.0967233454689304
333,545,-0.0903567410110209,-0.275376749054647,0.968265249982303,0.0282516855623705,0.0541725965885896,0.0196604677213127,-0.0688410975163156,0.0674189834308324,0.0438483378964921
334,546,-0.0899098031805988,-0.274352900390002,0.968294172928122,0.0353814877842462,0.0625615783511648,0.0190261262312145,0.0258549980866679,0.0388536925923681,0.0918742423882027
335,547,-0.0894543314657083,-0.27330872327323,0.96833935499126,0.0409287290946497,0.0700009265488825,0.018281129403133,0.0236773008197284,0.0388750797446165,0.0731978682038149
336,548,-0.0889964970123858,-0.272279136241914,0.96840301807779,0.0447753980560065,0.0748705671056437,0.0177877041857094,0.0709987819337842,0.0185310115280873,0.0907253523853803
337,549,-0.0885460975545186,-0.27129372170336,0.968484315207295,0.0460756337856558,0.0773501351452778,0.0173101490019123,-0.00344876521661994,-0.011205265179012,0.0782828272785034
338,550,-0.0880939620928905,-0.270347852662825,0.968577381727641,0.0454640178982156,0.0784465161808163,0.0172918486405679,0.0442813891449624,-0.0298704855243199,0.12755733174957
339,551,-0.087622531576419,-0.26941365405258,0.968686222752723,0.0435802298939848,0.0795923770210823,0.0174905868069805,0.118061491157648,-0.0565411144942557,0.162753717000912
340,552,-0.087101213863032,-0.268463473933567,0.968808197354404,0.0440428962912799,0.0813610589579765,0.0167252874634778,0.0926301468068232,-0.00442163324290683,0.0581067216932454
341,553,-0.0865214908927508,-0.267465651029211,0.96894425761978,0.047692830271512,0.0845900120390401,0.0154545781548307,0.0448720959436466,-0.00986134501437173,-0.0634206359293782
342,554,-0.0858886008567598,-0.26643410951762,0.969088142822268,0.052993098046779,0.0888199431212236,0.0139127237712306,0.0575524674860366,0.0199879755364411,-0.134275944108303
343,555,-0.0851953126837287,-0.265372269093961,0.969241107969749,0.0593045284497571,0.0928657632253845,0.0130068988511632,0.115181409317452,0.00984813984583991,-0.114919725427132
344,556,-0.0844491468718623,-0.264291247799237,0.969453004663775,0.06384399235771,0.0969739745094867,0.0129283099457171,0.171990437406782,0.0262497640936313,-0.0770648129326729
345,557,-0.0836455813413023,-0.263207507932468,0.969681199976738,0.0702072158306143,0.10010662415393,0.0130833287524417,0.173866178395827,0.0499072574890063,-0.0925955440147828
346,558,-0.0828076745977391,-0.262118888277859,0.969922365396519,0.074173570570856,0.102267572382127,0.0140352052933598,0.172698433442787,0.0331529598061784,-0.00763147454385699
347,559,-0.0819611140415558,-0.26102331991097,0.97016840509516,0.0770095461585448,0.103605818176864,0.0148764920319928,0.180971908246815,-0.00218474167712709,0.00664075985423799
348,560,-0.0811023801271073,-0.259925652455622,0.970408805381849,0.0806808392068201,0.104288687440644,0.0146100815520674,0.235344851181335,0.00363439471353519,-0.0756880123674945
349,561,-0.0802226178294937,-0.258824981105051,0.97063425667773,0.0846197068789552,0.104962582002745,0.0138872165274666,0.257433396830892,-0.0435549194068373,-0.117443022945231
350,562,-0.0793101488791814,-0.257732689689237,0.970841969154624,0.0891492576367194,0.105377440134076,0.0124776307846467,0.26748793790728,-0.0191526558083713,-0.177713431413741
351,563,-0.0783677872845016,-0.256650789379552,0.971029222314079,0.0923921116249059,0.105488838414935,0.0110114051875439,0.212808770583694,-0.035153255158725,-0.17752281882063
352,564,-0.0773967233401121,-0.255568380071156,0.971194238210362,0.0942281250187167,0.105431598095037,0.00976241674218344,0.224164479838271,-0.0505424838853393,-0.137354900131336
353,565,-0.0764170115247078,-0.254504373288598,0.971335548022178,0.0964089072622188,0.104754248519904,0.00845683108913013,0.233499404236857,-0.0373069017432074,-0.120460561600802
354,566,-0.0754166033829673,-0.253401158529017,0.971457011627309,0.0975077300966336,0.106108806848717,0.00737681545507506,0.206925025975963,0.00108404332924869,-0.0989292761770618
355,567,-0.0743594951246445,-0.252228382690677,0.971560774045116,0.102508512994437,0.109729001711738,0.00621443658721337,0.219378456851408,-0.0696218142907757,-0.137333530364562
356,568,-0.0732422036732979,-0.250990184245658,0.97164724436673,0.10843740841788,0.11372979667952,0.00546571390593484,0.183775170945548,-0.0976579960859187,-0.117941527812325
357,569,-0.0720672966673224,-0.249679785529835,0.971716952943162,0.114032236211794,0.118248513787302,0.00507184123661782,0.145062685474842,-0.108470105321827,-0.0730359523029775
358,570,-0.0708598824159624,-0.248293103543944,0.971773307659317,0.11755338036064,0.123415406982881,0.00496560546002588,0.101173627796253,-0.0712323824966693,-0.0133088539989119
359,571,-0.0696582139305638,-0.246837133793553,0.971822107320585,0.118476211006199,0.128743126588228,0.00578216964739087,0.122112855363971,-0.0835623080376153,0.105451700569552
360,572,-0.068491532498871,-0.245342738947236,0.971883814684455,0.117776257442728,0.133616803226411,0.00662356498268447,0.0333665553214264,-0.121279985554875,0.089506095511399
361,573,-0.06733857533291,-0.243819505372992,0.971937156180337,0.115868827787037,0.138073947732119,0.00726300909165491,0.0402010592864483,-0.176468134815235,0.106532863233712
362,574,-0.0662432985850945,-0.242329499059976,0.972100751058583,0.113402573534562,0.140258592954873,0.0092195494968439,0.00763260618041541,-0.0889788883487109,0.118753718852072
363,575,-0.065229753042725,-0.240905371260704,0.972266162512387,0.109021593846481,0.14112046563917,0.0111286748121806,-0.0233763813226986,-0.115352439463749,0.144806272720167
364,576,-0.0643057922408544,-0.239563781094163,0.972498052830317,0.104788581641093,0.140546452111462,0.013331460649023,-0.0620001166377148,-0.148697479253783,0.129546754196837
365,577,-0.0633542347256439,-0.238207611027824,0.972720716530592,0.101017640474931,0.139801270344958,0.0147405890699023,-0.0736608423205755,-0.0648942158646514,0.119665779745539
366,578,-0.0624903717230146,-0.236942407552933,0.972944892187464,0.0969257924610494,0.136919925996135,0.015897714981794,-0.0809924273892768,-0.0857240537186874,0.112873777433964
367,579,-0.0616348119461088,-0.235660275158681,0.973157627883233,0.0934450378468328,0.135974672845862,0.0165920788475341,-0.134064993205766,-0.0973143613974338,0.0706726861527906
368,580,-0.0608311975334124,-0.23440150425586,0.97334849992129,0.0889469141729064,0.134394376902705,0.0173141348422729,-0.269040196216878,-0.139098223157063,0.089192972582334
369,581,-0.0600734408731392,-0.233134166724336,0.973515613914393,0.0831533348457473,0.133888806155475,0.0189879058427069,-0.547251901274821,-0.131927381962273,0.19523855830566
370,582,-0.0594093771965057,-0.231889028786263,0.97366392162638,0.0757125778245747,0.133172361429659,0.0221980311798858,-0.359446866525227,-0.0986596899086825,0.390748904316497
371,583,-0.0587741683719355,-0.230633394825466,0.97380169889158,0.0718753768507824,0.135784801531823,0.0252669454865819,-0.329983717150443,-0.191224897563139,0.414465702209286
372,584,-0.058108710843573,-0.229371486843271,0.973931427564392,0.0708540450317779,0.138381736389224,0.0293321803578832,-0.523278105498077,-0.306857907898714,0.540705082826287
373,585,-0.057405032116052,-0.228127074421927,0.974064397441545,0.0707254874148512,0.139637547926276,0.0340111754768828,-0.50166092169358,-0.416022912719006,0.667961474400406
374,586,-0.0566670197033587,-0.22691475135681,0.974210180840839,0.069040954756306,0.137683580429104,0.0381965327627233,-0.623415255180533,-0.447267117324595,0.703467803279244
375,587,-0.0559128131686046,-0.225726136405922,0.974384858352809,0.0643217744642473,0.134511088669675,0.0432805120774674,-0.621201284002641,-0.398326217628932,0.813385323401731
376,588,-0.0551771752133261,-0.224541511149246,0.974596539761427,0.0559185628312737,0.131657496344128,0.0490145288662526,-0.570544077510399,-0.31483083505496,0.903152754601766
377,589,-0.0544569303546502,-0.223379948847237,0.974850537845369,0.0496725257973412,0.131019358807668,0.05435133779074,-0.528321721997428,-0.22575213164622,0.880697497991318
378,590,-0.0537512755466351,-0.222242609028105,0.975145087666429,0.0424759288251847,0.130424327323142,0.0602245179004407,-0.491013247067096,-0.210538481198888,0.924857527245367
379,591,-0.0530671855880307,-0.221109036610168,0.975476293506907,0.0363800630382643,0.131190247500821,0.0651900137582656,-0.395715478220614,0.0058441223160384,0.858621664189371
380,592,-0.0523840837110338,-0.21995059767601,0.975884936957572,0.0338364473496515,0.131156977284862,0.0676810391783142,-0.483041738627107,0.0167400591524077,0.644339544147173
381,593,-0.0516889447194412,-0.218788732148776,0.97632673959035,0.0331366748210854,0.129234432269549,0.0676290285645156,-0.443677886654341,-0.0689283237842874,0.399849128316871
382,594,-0.050984840827124,-0.217650835899622,0.976763695351613,0.032413971813484,0.124869251169808,0.0649838225174637,-0.44324383617909,-0.0764009648740242,0.150794865111917
383,595,-0.0502754162501911,-0.216509797451428,0.977159635724234,0.0347104683454743,0.120380709708965,0.0574982449746073,-0.510434309283811,0.0773088526801633,-0.287244310679264
384,596,-0.049584038467723,-0.215314856845506,0.977479968930338,0.0394480278186896,0.115873671478004,0.045778357918946,-0.470555441379802,0.00169343715542925,-0.698351542616648
385,597,-0.0488916477038744,-0.214062843738489,0.97772142253388,0.0468643022327421,0.112489302742568,0.0317954722095428,-0.267596649888912,-0.0822152291383277,-0.984554912418374
386,598,-0.0481409089465559,-0.212812631744871,0.978145781061944,0.0551252949726862,0.102994500534865,0.0179579780720895,-0.0131030133310173,-0.260178461844648,-1.33800993495355
387,599,-0.0475357322863024,-0.211581582941663,0.978540074559353,0.059001911388129,0.102843578299813,0.00684222730314883,0.103914281956828,-0.311082241138202,-1.40647835228746
388,600,-0.0468922898369579,-0.210449783063299,0.978869051911418,0.0704043331695981,0.0952751636781496,-0.00408883338472522,0.273787407082301,-0.245744229156458,-1.70601485260345
389,601,-0.0462563332873318,-0.209499797156296,0.979105723138857,0.0779306265951961,0.0823350757024553,-0.0149781347641189,0.208373953392332,-0.601816399563966,-1.83039023230336
390,602,-0.0454843576525754,-0.208834173767092,0.979496996918697,0.0744628390145496,0.0532631378393833,-0.0234234919043368,0.686927553873855,-0.274001051335633,-1.256873746157
391,603,-0.0451773285751506,-0.208495047761981,0.979537710988798,0.0732976458623487,0.0429258198094953,-0.0345806599221448,0.310897022840165,-0.752141919123097,-1.56869618510838
392,604,-0.045542561762233,-0.208704417006258,0.979606294686705,0.056260342860163,0.00817229724426331,-0.0329707857441094,0.758253178619984,-0.287605914077701,-1.02117228934112
393,605,-0.0467881577362543,-0.209494205291533,0.979653527260705,0.0232070774014949,-0.0306133889524128,-0.031036383102504,1.11881852227555,-0.780839907780196,-0.738476331167868
394,606,-0.048607048214042,-0.210701174724149,0.979625999654456,-0.0171341961415155,-0.0680952984421413,-0.0329453763726726,1.11737624082783,-0.729315841742877,-0.788888335413413
395,607,-0.0504430122623751,-0.212114303990074,0.979494299801711,-0.0500287312118457,-0.101614101951345,-0.0381681360436181,1.10004538376919,-0.802863749621169,-0.906276038961088
396,608,-0.0519850237060967,-0.213647374593954,0.979267472928193,-0.0684905260985013,-0.126225462187768,-0.0456951559176521,0.994675512128526,-0.540968655730809,-1.0197002463497
397,609,-0.0530564733530086,-0.215122784315183,0.979023469808426,-0.0755403358036151,-0.136904113332352,-0.0493704620539253,1.12488955194549,-0.13645190932177,-0.731157731154197
398,610,-0.05368969075176,-0.216450739519824,0.978789582845076,-0.0768258753792303,-0.139702972874662,-0.0521392017961332,1.18040939016617,0.0608533274154682,-0.731250494738236
399,611,-0.0542249989038187,-0.216836176117317,0.978472712086683,-0.0842993114424613,-0.149019079999175,-0.0547639900648823,1.24941349455914,0.470097716230946,-0.778327195739174
400,612,-0.0540716227769609,-0.218095773999014,0.978190217008914,-0.0660850298182974,-0.147505585065545,-0.0644068017817561,0.585638919044463,-0.224009232500684,-1.10251063230808
401,613,-0.0538620471014537,-0.219447629635075,0.97789808996162,-0.0601963121208445,-0.148585294362711,-0.067106807025288,0.899575208988585,-0.267669049732646,-0.880399140324369
402,614,-0.0535968832013754,-0.220828873541145,0.977534832065606,-0.0515376820145389,-0.150435489327666,-0.0743176728349746,0.155722770485335,-0.597554286186895,-1.13419388514145
403,615,-0.0533847699870369,-0.222352529871472,0.97715109242255,-0.0471059450459431,-0.156446788956564,-0.067903099848608,0.328172521793257,-0.206819977648014,0.130514825480663
404,616,-0.0531815719841564,-0.223982922178883,0.976819925474472,-0.040638134458762,-0.162723752834724,-0.0597390422655504,0.215363423846246,-0.594040618183587,0.254515131235003
405,617,-0.052994671008484,-0.225679952165551,0.976526788691114,-0.0374643967061092,-0.162830693366492,-0.0489125732057492,-0.193339893956553,-0.338105954897871,0.531332426659167
406,618,-0.0528749878861933,-0.227331204268581,0.976282195377718,-0.0377566923137897,-0.157453221476079,-0.0359644308563112,-0.241222145425516,-0.0777825517843528,0.802944486411023
407,619,-0.052757271421565,-0.228872632908424,0.976074489304845,-0.0335406348371526,-0.149059739892797,-0.0259060582195823,-0.0310033330768752,0.167018481207569,0.736203945481495
408,620,-0.0526055289195171,-0.230282274766914,0.975875286612053,-0.0260145375389287,-0.140489159955922,-0.0208720285601333,0.0292985208742242,0.169465390551345,0.421388375856175
409,621,-0.0523454698953006,-0.231562771712266,0.975647165772792,-0.0143672196830409,-0.132775333104919,-0.0209873160856296,-0.313517707820175,-0.0893734209704219,0.147567195101771
410,622,-0.0523109920005412,-0.232566362902936,0.975324636843281,-0.010464359893851,-0.122774620792641,-0.0234083176354085,-0.587888621360387,-0.408987506506289,0.100173683753686
411,623,-0.052041539944391,-0.234450517356221,0.975013356444277,-0.00884353166930844,-0.12669830751323,-0.0227958038937746,-0.723870478893549,-0.105830571642864,0.357331418720738
412,624,-0.0525005402216354,-0.235336845260826,0.974737687125048,-0.021343842653903,-0.12310180749194,-0.0197461328527513,-0.998297276905868,-0.200933364855426,0.559648576839612
413,625,-0.0529160652195039,-0.236606644421252,0.974541886697571,-0.0386630182468475,-0.126533195240031,-0.00944539517989354,-0.713299391324834,-0.360466899536478,1.097252849303
414,626,-0.0529301941162377,-0.238002163786576,0.974454874901091,-0.0455460406369278,-0.130036149272841,0.00376173836769977,-0.634454878061047,-0.253948542028429,1.35161787760553
415,627,-0.0527982171786141,-0.239371462543898,0.974465307003172,-0.0472096841426708,-0.131001032689884,0.0182284245973295,-0.562890817500071,-0.287546818652078,1.4889028497306
416,628,-0.05256437760797,-0.240795280826494,0.974559867271454,-0.0445899002135626,-0.126042672479826,0.0355297972255288,-0.0942311907830107,-0.000226800321272441,1.73824824333047
417,629,-0.0526172952644104,-0.242855587539177,0.974703891591732,-0.0409073241063946,-0.123892151291109,0.0474589124149494,0.0684659859738687,0.439554252744392,1.37383247113223
418,630,-0.052402559859022,-0.244717206764663,0.974865768169426,-0.025270518954437,-0.116819026274186,0.049136535111193,-0.19395540890352,0.50053368713374,0.496295867512562
419,631,-0.0521545123678237,-0.246451701673788,0.974975418929282,-0.00606902534965743,-0.111637840706697,0.0434808849039545,-0.474253758395249,0.486663384055777,-0.175313290391921
420,632,-0.0520230990205307,-0.248096001962849,0.975001668472959,0.00898781462885718,-0.115732856447463,0.0306947645875275,-0.829516785354339,0.147547842341259,-0.804528898151647
421,633,-0.052009763784679,-0.249387725146628,0.97494701104065,0.014531783052858,-0.120726497856893,0.020138536545176,-0.588173109085621,0.0420028217105029,-0.660283153987185
422,634,-0.0521387778727925,-0.250434512151107,0.974911367407463,0.00939960342258608,-0.131583365530898,0.0130435284724829,-0.72219883609293,-0.326012339036219,-0.304942696750539
423,635,-0.0519711392549864,-0.251441122676075,0.974800472032423,0.0046616470832785,-0.138078379285695,0.0082262111454992,-0.642257164655774,-0.618330627713491,-0.247061914312005
424,636,-0.0517191417669412,-0.252433890386284,0.974702319249611,-0.000675980226633652,-0.142203052726313,0.00644485130324154,-0.608105691540897,-0.828595684514427,-0.0567298252247952
425,637,-0.0514256264908432,-0.253452973641171,0.974629273594492,-0.000395113816829511,-0.146128589615491,0.00652483364509826,0.00601561321311372,-0.384499772584233,0.138341557548166
426,638,-0.0511209977297542,-0.254493358662596,0.974589363322971,0.00332215657558431,-0.147785963871503,0.00819042146166273,0.22338720095504,-0.339591992014425,0.270814364661187
427,639,-0.0508480672207446,-0.25559795546593,0.974576984869514,0.00495745902280484,-0.14944047378891,0.0100714413535504,0.128832215677378,-0.376160369171678,0.282574456579736
428,640,-0.0506316314294209,-0.25684312261146,0.974583229009973,0.00727311087578972,-0.150838966792603,0.0108096431484905,0.126632653704055,-0.367533091675735,0.175651350709106
429,641,-0.0504656259335121,-0.258220280071276,0.974604117601982,0.00696229731652412,-0.151187178546737,0.011001521275228,0.0979159184048638,-0.26933993046777,0.102274342940587
430,642,-0.0503379665924832,-0.259692088720119,0.974644702657884,0.00549589205774139,-0.149941069684233,0.0117502517696498,0.00337672143854695,-0.177283260519344,0.09075896695101
431,643,-0.0502121670178765,-0.261214542269514,0.974713083948236,0.00547067800447655,-0.147906761182728,0.0127403214834012,-0.055102763101622,-0.196504571442993,0.0732341522595943
432,644,-0.0500624138321833,-0.262735884481,0.974818654655813,0.00541872356203549,-0.144806333595499,0.0146585433354229,-0.0685543436720377,-0.056940237007126,0.124066588129173
433,645,-0.0499651040095015,-0.264331583633754,0.974965584298632,0.00708956928200745,-0.144014881276248,0.0163844407430017,-0.199977281080183,-0.00207620123140217,0.0854578186440733
434,646,-0.0499245046335979,-0.265977414579677,0.975212469605925,0.00733772497823977,-0.144537274663367,0.0203241840805314,-0.149945531920922,0.139310942463723,0.22734531100375
435,647,-0.0499109960089743,-0.267624585106271,0.975547482574737,0.00512194983058012,-0.146392086359571,0.0253734244371843,-0.0173029226082499,0.254215207274122,0.34363615388223
436,648,-0.0500737967304135,-0.269285516232566,0.975964038291466,-0.00015053279730466,-0.148368716648641,0.0311261979634303,0.0168521595061578,0.353917509797659,0.428943823240111
437,649,-0.0504029613990156,-0.270906803777466,0.976539621123815,-0.00790006236971983,-0.148657447695004,0.0364436329787591,0.101364600279761,0.355480557957548,0.362542174463135
438,650,-0.0507912456178849,-0.27240795574082,0.977236607635428,-0.0144224002202602,-0.146072762809619,0.0404862775291581,0.0526385438124474,0.348009899143032,0.195153162079922
439,651,-0.0513160692226375,-0.273860679059853,0.97798627511033,-0.0214780902417263,-0.142565445047107,0.0429195954568114,0.0490569094586995,0.326374184306199,0.0212326208096572
440,652,-0.0518670885173156,-0.275262750531427,0.978768131123923,-0.0264735882561113,-0.139579178762298,0.0434764442504143,-0.0243411760604587,0.28356056407614,-0.172157416670275
441,653,-0.0524753710511615,-0.276666392803367,0.979561601690615,-0.0322907980847433,-0.137514018662621,0.0428823542038521,0.0340483661251296,0.26723779129981,-0.294565330546979
442,654,-0.0530657223036758,-0.278068861441134,0.980351920914639,-0.0361813709309727,-0.13515111009286,0.0419041580525394,0.0942532923269501,0.321528074265996,-0.328379907756263
443,655,-0.0536406873845491,-0.279473184424799,0.981126341118325,-0.039357988070922,-0.133178126288047,0.0401328942550583,0.107652842863908,0.33677368167048,-0.399907104269184
444,656,-0.0541995672037325,-0.280869056815305,0.981868914260782,-0.0432415074355866,-0.131045820301765,0.0388041357711149,0.264263307386508,0.364746035324406,-0.332069271647089
445,657,-0.0547296936882518,-0.282213721924118,0.982561697825004,-0.0465372090636178,-0.126881042461143,0.0374332406660112,0.219677292506925,0.420964371504877,-0.308907444289247
446,658,-0.0552727238678166,-0.283478498667109,0.983182534614111,-0.0507624543547544,-0.121330969852855,0.0364837918096867,0.269436740884766,0.507342093081842,-0.185456707382757
447,659,-0.0558294641716561,-0.284652627906889,0.982994860125252,-0.0547638774185807,-0.114009808067333,0.0321085641372221,0.164150415671948,0.603807940872188,-0.182248271378282
448,660,-0.0564385201251868,-0.285727619071634,0.983339259082127,-0.0582491675905095,-0.10506821920636,0.0294489259463483,0.156716777815958,0.605485480298508,-0.11766919371615
449,661,-0.056892531529074,-0.286624069994092,0.983619726369391,-0.0560634899439722,-0.0938033285959207,0.0267800411662367,0.046791981841991,0.735389610043892,-0.120432942616603
450,662,-0.0574166391551309,-0.287406123906144,0.983771736222071,-0.0536309502650961,-0.0822407941118381,0.0230399781869236,0.0349168966615676,0.753597804654491,-0.160950154532181
451,663,-0.0578614580015167,-0.288065457199313,0.983158934597425,-0.0501097531789716,-0.069650477738084,0.0159959586686838,0.0231515354261575,0.711778366098591,-0.197373628744829
452,664,-0.0583497064262959,-0.288661035447664,0.983034538088476,-0.0475665277540439,-0.0592789987844389,0.00940833179291806,-0.0164533676400473,0.774642111751628,-0.256408023574408
453,665,-0.0586566451921971,-0.289116726715676,0.982834732295966,-0.041592266993696,-0.048520142847918,0.00352972111513213,0.0293002716012704,0.735727331457397,-0.235101423242818
454,666,-0.0590416393765858,-0.289577009533378,0.982549884924552,-0.033944388578207,-0.0396381326569738,-0.00161198060831307,0.0895048538033589,0.690923679706089,-0.188538651030517
455,667,-0.0592385799739098,-0.289987193540936,0.982202638993251,-0.0254090498607285,-0.0331333988261555,-0.00639053937656658,0.0714296580068911,0.588882591704652,-0.165630411633046
456,668,-0.0594521854573028,-0.290402848502429,0.981793403430821,-0.018460679817718,-0.0284635865313341,-0.0109696737576451,0.0154195852536556,0.518091630898058,-0.151800703981422
457,669,-0.059641651669851,-0.290788880251491,0.981340780481353,-0.0158631727252808,-0.0265655698376317,-0.0136176186307602,0.229969559635842,0.366983334931848,0.0774090353539759
458,670,-0.0598360044145979,-0.291153848255644,0.980867615634247,-0.0142186849585143,-0.025494120447128,-0.0163822254172052,0.18263975302618,0.293459707178084,0.0711002314846157
459,671,-0.0600348657008344,-0.291476507135808,0.980388930742137,-0.0134480889618532,-0.0244005782812483,-0.0184885718156408,0.185374762270167,0.131307507827559,0.079198565753185
460,672,-0.0602436585614427,-0.291753923605332,0.979913480781042,-0.0130686660770197,-0.0229390573986717,-0.020615662441199,0.0838876092544782,0.154115983281434,0.0413654173656064
461,673,-0.0604944876860493,-0.291962245865241,0.979448354869014,-0.0154259708149078,-0.0203490879423077,-0.0215960860072333,0.0460255563530573,0.134735460385443,0.109564291155618
462,674,-0.0608213448388401,-0.292099552444868,0.978999042690117,-0.020045048407972,-0.0165252019483017,-0.0225303839263451,0.0216787114151554,0.145413947982751,0.100373294747482
463,675,-0.0612336378666096,-0.292135270981769,0.978570089107864,-0.02505172545089,-0.00989131855999449,-0.0233086907489116,0.0972311029314776,0.165340128127517,0.0632035598573928
464,676,-0.061711901618531,-0.292041597252441,0.97816748037552,-0.0297383650017336,-0.00180747246032668,-0.0235619026968265,-0.0414705789510587,0.207648981654648,0.0355827456980966
465,677,-0.0622481354835518,-0.291763491081731,0.977799374206425,-0.033387270844568,0.0100510032225537,-0.0228127423208337,-0.0131178055635727,0.139772916309881,0.0255528287683214
466,678,-0.0627933917271631,-0.291299715497609,0.977468565013284,-0.0346664180377755,0.023233875591903,-0.0217788136827813,-0.0566451616558759,0.205821164730344,-0.00283888571057548
467,679,-0.0633485972186599,-0.290662889873962,0.977171389492027,-0.0362467554670446,0.0370680162170268,-0.0197697613003148,-0.00560086033188451,0.237459668634521,0.0765423343818041
468,680,-0.0638964855497537,-0.289868734275353,0.976906102679962,-0.0372733317859183,0.050700012547096,-0.0171694789235716,-0.0274744217835555,0.291103883434269,0.136874527746473
469,681,-0.0644208055731631,-0.288940199180716,0.976666872168582,-0.0380817709261887,0.0637081174504356,-0.0151361248735738,-0.103463999828452,0.276669876768949,0.105083434766056
470,682,-0.0649108268750092,-0.287917803681995,0.976440653384436,-0.0374030509888091,0.0747651657042625,-0.0141442141721978,-0.101115154832854,0.265307647159437,0.0313431571485178
471,683,-0.0653441587946112,-0.286845022319681,0.976217076269078,-0.0354118363160605,0.0835468288426558,-0.0137946679256687,-0.176046752959683,0.198847931460349,-0.0364365183453484
472,684,-0.0657380171338697,-0.285779014933331,0.975984888017387,-0.0338165900239278,0.0887942111437774,-0.0136173439771826,-0.117140413447401,0.181200126692594,0.00102941970758014
473,685,-0.0660972878174118,-0.284756374924356,0.975742516308921,-0.0326735119907357,0.0908586165259519,-0.0138165947624463,-0.0818451685105527,0.120489456693535,0.00387771880101733
474,686,-0.0664031879797009,-0.283800422365463,0.975490881648902,-0.0307292679536955,0.0913274623399288,-0.014267431362965,-0.0333347131194729,0.138808500884499,-0.00453393013447664
475,687,-0.0665970371028249,-0.282947356354595,0.975244469383289,-0.0276350629144951,0.0893381493808371,-0.014687168142347,-0.0488686107140922,0.0282163665527501,-0.0302856547076523
476,688,-0.0667890070504528,-0.282197964729342,0.97489009170206,-0.0238590031965739,0.0863877480478967,-0.0155012751642296,0.0360655717407225,0.0321794770596762,-0.0558972566392607
477,689,-0.0669249482896728,-0.281486024109919,0.974634619783158,-0.0205829778951067,0.0837327972999027,-0.0151025688250454,0.0843752494361257,0.0472665130644269,0.0102955337226908
478,690,-0.0670636169781506,-0.280815662767657,0.974459378630705,-0.0188924677326126,0.0804364084483194,-0.0141371962630463,0.099278135072376,0.00745525844342591,0.0316697144210868
479,691,-0.067203376036063,-0.280156733651343,0.974302405044988,-0.0174849422881551,0.0786656123704716,-0.0138834422641001,0.178565808564886,0.0404931678879505,0.00388464962571222
480,692,-0.0673494980943292,-0.279474872227685,0.974213925460286,-0.0156739462034569,0.0792751524279594,-0.0130082851629171,0.1922882511501,0.085154690154241,-0.0188218426571644
481,693,-0.0674886395447996,-0.278719185493796,0.974177829706774,-0.0142033947322078,0.081890665348388,-0.0117520053050581,0.179544245719006,0.11998755320838,-0.038209455490667
482,694,-0.067635017070417,-0.277893238346586,0.974212667645334,-0.0133125095106348,0.0862241072847239,-0.00869482825017364,0.086521328732231,0.26317405111429,0.0577507917491948
483,695,-0.067795889635473,-0.277065119659135,0.974312816522778,-0.0122800949579315,0.0893442039233131,-0.00542371909115507,-0.00945142222970806,0.302027657446833,0.0158716722474059
484,696,-0.0679263814036315,-0.276543103883838,0.974420367738382,-0.0107656647223783,0.0861517472689357,-0.00218806471571997,-0.02376220842069,0.20210935860273,0.028775174953221
485,697,-0.0678435004120635,-0.275999259699646,0.974312999381037,-0.00358179410953642,0.0853096443561128,-0.00281681792099371,-0.0454208399718286,0.136806281311124,-0.0169750216655986
486,698,-0.0679739516853307,-0.27532293957966,0.974288729698826,-0.000126364617524712,0.0845222882772467,-0.00198765013651744,-0.0277333915155394,0.141903506083824,-0.0117017719876641
487,699,-0.0678107590664711,-0.274595125758158,0.97422431268382,0.0065877544938451,0.0838141846391305,-0.00184079662398822,-0.0130616099684586,0.0581924322622408,0.00853843292377356
488,700,-0.0675455778021116,-0.273861113498898,0.974138775776989,0.0148564827185517,0.0819379826942749,-0.00242723295661788,-0.0390002339625744,0.0152009524155865,-0.0350049918362486
489,701,-0.0672160033934787,-0.272979884838013,0.974019791787523,0.0223910683070402,0.0804510536997878,-0.0033263261533969,-0.022315573674719,-0.0389787973456465,0.00248202027465733
490,702,-0.0668118453564135,-0.272130486662192,0.973888798408819,0.0293998742923098,0.07968322353074,-0.00399221102661155,-0.0338455512887717,-0.0874857771969998,0.0319373101459413
491,703,-0.0663725977690516,-0.271218234216823,0.973758736000537,0.0343548126527887,0.0794255696367784,-0.0039325348666476,-0.0277201687298289,-0.118812242446881,0.126020687963539
492,704,-0.0659000736253849,-0.270301436275379,0.973639638328342,0.0383663116583416,0.0792489884036115,-0.00344674608186271,0.052607000693847,-0.15460319067561,0.188812889073952
493,705,-0.0653991597909764,-0.269367602336323,0.973534049128488,0.04189169029876,0.0787205351689208,-0.00306555415964484,0.119624599720964,-0.106629935699917,0.202914939957497
494,706,-0.0648715356696574,-0.268429269835323,0.973443165922592,0.0453690546614081,0.0781736783750962,-0.00264284651351304,0.15450217502694,-0.099499662784783,0.206459876808029
495,707,-0.0642895312225398,-0.267512296660888,0.973370745947216,0.0485104431153883,0.0756325493030222,-0.00219767789885594,0.221422343993865,-0.0694346574737621,0.224773452927314
496,708,-0.0637191807867724,-0.266615593920745,0.973311960563127,0.0520956368693955,0.0743525274159434,-0.00156241750694531,0.257504268000958,-0.0355763308688475,0.225060406895493
497,709,-0.0631333879390483,-0.265753650555873,0.973274578653367,0.0557763090626894,0.0714670919622662,-0.00043146311929708,0.260646407856585,-0.0449691552222815,0.252278636041689
498,710,-0.0625319153728297,-0.264920613172191,0.973259638930646,0.0589568059680006,0.0691820224685148,0.000803371820360363,0.232179831753922,0.0226186220080549,0.243935798406021
499,711,-0.0619278170939445,-0.264098283071033,0.973265640779344,0.0604000134984363,0.0680596644243237,0.00250785800643888,0.13911927471004,0.00621387073529288,0.271977016265909
500,712,-0.0613526358989476,-0.263283002725923,0.973289062133137,0.061103277207484,0.0684788492076355,0.00338019578946193,0.109659489508111,0.0983602736364934,0.193378381557413
501,713,-0.0608103628048521,-0.262480898501297,0.973324145340678,0.0608984058826587,0.0690900806879515,0.00400740248809691,0.0950695869019175,0.133709856330746,0.15016663239973
502,714,-0.0602751901202532,-0.261659828020508,0.973367377521386,0.0613408788953351,0.0718530709783767,0.00388761186001936,0.00634065227812576,0.115096533184558,0.0328283321233244
503,715,-0.0597269171210833,-0.260804075518713,0.973410150013236,0.0637066007237157,0.0763794216231282,0.00262829533418746,-0.0359283284188612,0.158864698980339,-0.117158517679618
504,716,-0.0591441663620575,-0.259903261098185,0.973446857949026,0.0673470873322277,0.0821441966470772,0.000723751541540634,-0.0897097405960246,0.161008822284183,-0.230402283616408
505,717,-0.0585421570961289,-0.258961104388606,0.973474669150167,0.0688918882475274,0.0869843166940449,-0.00112244576208067,-0.0587272638020048,0.0755776369056712,-0.224665289016539
506,718,-0.0579081410858001,-0.257991716912424,0.973494843008993,0.0707733634222091,0.091131852861018,-0.00297989455183712,-0.0476655184749528,0.0747011931442383,-0.22827460581416
507,719,-0.057254667777158,-0.256993494670184,0.973509847192463,0.0713191496424138,0.0954376549247683,-0.00413415209104737,0.0303592594165213,0.0397398668357983,-0.161937283066921
508,720,-0.056586130618864,-0.255956461323834,0.973524911496729,0.0723234383765616,0.0997035998255775,-0.00489857896105539,0.0587268968944922,0.00932463574954522,-0.135643239674293
509,721,-0.0558929015191387,-0.254870355270414,0.973540947675456,0.073574101961078,0.103424051994981,-0.00517222680294007,0.0617168118951121,-0.0855620988169557,-0.107110151356435
510,722,-0.0551668442004547,-0.253736684461018,0.973555913334851,0.0746965321236486,0.106996691161374,-0.00511154079900475,0.0880961170725825,-0.0683821624887732,-0.0671090747834757
511,723,-0.0543955927901187,-0.252563114983697,0.973568390989651,0.0772063781953362,0.110260370576342,-0.00476806808683686,0.152310174817113,-0.024590256592982,-0.0248052165077001
512,724,-0.0536207204377173,-0.251347873965306,0.973616464676435,0.0779515007335281,0.113368094775168,-0.00398388854972329,0.176146104840602,-0.087580027287285,0.00874412589787517
513,725,-0.0528273388563469,-0.250143416024513,0.973684565934412,0.0787692557606398,0.114388238962456,-0.00364917462683751,0.165361635966352,-0.022842736383379,-0.00976150955759745
514,726,-0.0521071610159644,-0.248935472714373,0.973736645356664,0.075024568389638,0.114201272872615,-0.00311465948747293,0.202675380726675,-0.0151263093812296,0.0364639182638286
515,727,-0.0514439786673429,-0.247746050491517,0.973767723832995,0.0697914782857868,0.11136716395174,-0.00364796143786028,0.171409600550586,-0.0672618489781996,-0.0293193054624915
516,728,-0.0508736118118671,-0.246595422405222,0.973770573917241,0.0642309870949959,0.108896529097055,-0.00407037942167942,0.112826229149782,-0.0848582847968946,-0.0186376957919868
517,729,-0.0503337522633431,-0.245451110225016,0.973746506698089,0.0601857281384307,0.107350229766262,-0.0047812532010002,0.042555210314729,-0.109948578439545,-0.0439502692699291
518,730,-0.0497884534625177,-0.244302880171259,0.973694597244209,0.0576907288997715,0.107269110893633,-0.00546837715043438,-0.0305042265479118,-0.0406994631952264,-0.0367275214656741
519,731,-0.0492545962769293,-0.243146566107194,0.973700117596287,0.0553247550159403,0.1079432287199,-0.00477595400163886,-0.051191511761833,-0.0569573729116425,0.0461924371295838
520,732,-0.0486984002182787,-0.241987994134415,0.973756046690084,0.05315468312328,0.109354540383994,-0.00281533282647615,-0.163289659187118,-0.0760801150583686,0.145003885301531
521,733,-0.0481959055054005,-0.240823108168997,0.973819168888056,0.0479107708636404,0.111475070116906,7.44134408530265e-05,-0.137699816135977,-0.0376640756575156,0.253729717580057
522,734,-0.0477445004843857,-0.239659146989612,0.973891719426298,0.0425836664416572,0.113256647336609,0.00334771373346394,-0.111432463732656,-0.0855379756860936,0.308479065025066
523,735,-0.0473372677648841,-0.23851451520019,0.973973271512861,0.03897324127579,0.11514723429532,0.00702215424387255,-0.0721821813692286,-0.130363926623918,0.355269006258837
524,736,-0.046970333152294,-0.237417233156734,0.974062318245931,0.035249798868843,0.115476022656312,0.0112160687347957,-0.164498474845562,-0.134839312034026,0.416484173016878
525,737,-0.0466760990753703,-0.236370181010853,0.97416234741817,0.0280343391629305,0.115279544187216,0.0169974653627076,-0.210372956471174,-0.0485150265852572,0.590305778014438
526,738,-0.0464631704320325,-0.235340187210973,0.97427819779309,0.0194338600084523,0.115690373080731,0.0232333532578107,-0.265351482561178,-0.0335578544967396,0.684355275774409
527,739,-0.0463299421417933,-0.234278056873691,0.974410202464976,0.0114910164524807,0.118848998347009,0.0291370535242523,-0.281606260963999,-0.0126426430577583,0.689682065408326
528,740,-0.0462333823923548,-0.233162547757452,0.974557765866449,0.0065690595621121,0.123236550037873,0.0340164106543119,-0.270419987188772,-0.118847517996898,0.626788737317074
529,741,-0.0460941183293152,-0.231988446431176,0.974718364201567,0.00573532756226232,0.12757015963354,0.0372605346701884,-0.569169822021883,-0.190791382630716,0.494199801748214
530,742,-0.0459041492891209,-0.2307587870871,0.97488381148179,0.00514840806759866,0.132181063234921,0.0389668667032656,-0.674566304040445,-0.245124191903329,0.376220785095286
531,743,-0.045716691798211,-0.22951862210661,0.975050641515439,0.00116672084197995,0.133951290956366,0.0407032064451995,-0.637655188849435,0.0348263879539061,0.434409159156145
532,744,-0.0455423681772001,-0.228258066939691,0.975231261646928,-0.000907556995572839,0.136866664290037,0.0430622077595672,-0.577123775818474,0.103665486965177,0.502306847870399
533,745,-0.0453640074351518,-0.226994638728776,0.97543209010058,0.000499259504349676,0.140563769722616,0.0455955679445643,-0.591450082691919,0.025096535896192,0.510751907052277
534,746,-0.0452027593112675,-0.22576118671543,0.975656580349817,3.22967259321088e-05,0.142884278427441,0.0489991236364306,-0.516149050015038,-0.0590169383353979,0.59457575475291
535,747,-0.0450476774028558,-0.224570159365053,0.975904393139395,-2.72239438826754e-05,0.142867786857592,0.0520202860904146,-0.398504230163838,-0.173635651076743,0.587590682887582
536,748,-0.0448983514318582,-0.223452397124043,0.976167478353437,0.000283529556199326,0.14014012658217,0.0540882196842405,-0.366763488134963,-0.329629941202984,0.509592696628796
537,749,-0.0447264879921936,-0.222426231546293,0.976437428166358,-0.000223526718365758,0.132647834721821,0.0555075486169711,-0.431469291053958,-0.471009668954597,0.455960689796414
538,750,-0.0444882331677969,-0.221499472082445,0.976703427596956,0.00231969814272934,0.123666646436782,0.0548381048232036,-0.521613036520933,-0.440109020351756,0.275082702863299
539,751,-0.0442278430463124,-0.220666711492608,0.976950298329821,0.00285959624991315,0.113119473265163,0.0531788655906537,-0.411867555095036,-0.210696543054794,0.174809786454699
540,752,-0.0439807264324918,-0.219932981880914,0.977164622226687,0.00164252136386144,0.101233666236814,0.0497130004991437,-0.230782643424043,-0.245391910612583,0.0120982342628999
541,753,-0.0437458156923069,-0.2193139820106,0.977418649326784,0.00288720591696662,0.0895422957026869,0.0449248191050332,-0.154620861652375,-0.206775471886,-0.186042328251408
542,754,-0.0434336633912878,-0.21877708933874,0.977657243062987,0.0057859056118684,0.0790386650462439,0.0386974734505979,-0.0662278401446809,-0.135610993857054,-0.371675696369075
543,755,-0.0431276392902664,-0.21828862850214,0.97785088707852,0.0109744568951397,0.0699257519656677,0.0283800968323553,-0.0674815580534806,-0.093995421782643,-0.773561934683477
544,756,-0.0428378313699787,-0.217813291399984,0.977942837159928,0.0156870364439054,0.0607267089531164,0.0145674746898779,-0.0974222054999511,-0.22286312961127,-1.17235870414212
545,757,-0.0425531948107029,-0.21737638004556,0.977973724258756,0.0195460326275684,0.0487910673122718,0.000632225589737642,-0.00249583361482017,-0.432792187356004,-1.30430347386388
546,758,-0.0422601706209111,-0.216957943504018,0.977931779820267,0.0229847832842412,0.0375400524367513,-0.0161167575537636,0.0754209887587427,-0.223979630023433,-1.61166472668578
547,759,-0.0419499902114655,-0.216529826482853,0.977856397507538,0.0274505003259152,0.025423201235947,-0.0314352107957634,0.133854702421201,-0.472162944638738,-1.64876162200871
548,760,-0.0417862148796135,-0.21619104231624,0.977792951565158,0.0270937478735179,0.01079625948426,-0.0431979994683021,0.186371838758632,-0.663062645951366,-1.49839857752198
549,761,-0.042228940483541,-0.216017430974346,0.977750838376701,0.0139976801886678,-0.00830617561568859,-0.0510552847376154,0.251519343974162,-0.747268009649577,-1.25381352022581
550,762,-0.043488169859775,-0.216046241948687,0.977681057492201,-0.0117575549217246,-0.0296588938776217,-0.0561182969766571,0.520008808951141,-0.838554688861094,-1.02957727485468
551,763,-0.0452653298770892,-0.216304920974386,0.977565214097486,-0.040874514208064,-0.0510294960528579,-0.0577744773190101,0.789684989431171,-0.783483093873088,-0.711438021124866
552,764,-0.0472420036185636,-0.216787900978662,0.977438985510641,-0.0713898482337434,-0.0727491728772079,-0.0557623729475189,1.04145895580975,-0.787768434766445,-0.428795254299642
553,765,-0.0491635236428557,-0.217488555603901,0.977326998197082,-0.0953935538137306,-0.093456512364769,-0.0538388662211175,1.06465843399212,-0.727706460895969,-0.406967688879949
554,766,-0.0508827860998911,-0.218358224392401,0.977239602526597,-0.112477108554026,-0.108588560117018,-0.0523700072053692,0.910182440307978,-0.509464598899461,-0.424991528095163
555,767,-0.0522958606220729,-0.219313446153977,0.9771489691273,-0.121888685846262,-0.117372133625976,-0.0563417727541617,0.59512579432259,-0.373397842112177,-0.871286782546863
556,768,-0.0534493921428448,-0.220350518753587,0.977000189464546,-0.126155658768318,-0.125589898752468,-0.063205299087607,0.318076034071756,-0.308657833966997,-1.10552201163175
557,769,-0.0543895668377679,-0.221461244428936,0.976790350238233,-0.128285682975641,-0.132498976364388,-0.0691283567166825,0.270771918666174,-0.146093461903271,-1.0440508369618
558,770,-0.0551521247789754,-0.222647597984995,0.976542990075556,-0.125914437262206,-0.141552729783477,-0.0728451072950742,0.139162258417416,-0.360288660185211,-0.857581169839868
559,771,-0.0557693730804951,-0.223931321283762,0.976253568852964,-0.12084572294026,-0.154567706615343,-0.0793203493246369,-0.0834791999553656,-0.762007344843408,-1.06338336303621
560,772,-0.0563519045952774,-0.225272133226922,0.975937906976204,-0.118824310860706,-0.161085531119773,-0.076610728250485,-0.0327118684070388,-0.339508661730341,-0.193471163321798
561,773,-0.056870928941184,-0.226620786695115,0.975660966298601,-0.11238506638525,-0.164427809091091,-0.070239148863187,0.033022753882639,-0.252795969373534,0.137749531271976
562,774,-0.05731293499915,-0.227960076214278,0.975428447254237,-0.106962772327467,-0.163319479595964,-0.0616387657071931,-0.129054931965463,-0.269812563791093,0.371232336392044
563,775,-0.0577037074170017,-0.229279513214878,0.97525055324552,-0.103630010152718,-0.157843938219314,-0.0518250274859183,-0.378376084553774,0.127186905631637,0.539855191669781
564,776,-0.0580071220185898,-0.230481045659547,0.975130926231591,-0.0978898698786491,-0.148933204301926,-0.0427999274889444,-0.503493525339597,0.0663623580189865,0.545638650430896
565,777,-0.0592644630230562,-0.232077864394257,0.975023663258215,-0.0999503958722497,-0.144399778794798,-0.0366353042558364,-0.423178449070772,0.0753236672166998,0.372475468363958
566,778,-0.0595549594374553,-0.233192746478845,0.974909931513773,-0.0897119408284302,-0.133184086127962,-0.0333667627721021,-0.331066629617831,0.235288597520726,0.175873468155664
567,779,-0.0602136794379935,-0.234342575041804,0.974773640916263,-0.0824216528930941,-0.123338624745981,-0.031877556354972,-0.17869497515656,0.125567869604301,0.0603012225630798
568,780,-0.0606678790967004,-0.235459501679509,0.974621836707994,-0.073098626575655,-0.116666557312319,-0.0323714179130069,-0.247895308188232,0.083075464369391,-0.11448988325714
569,781,-0.061053256742072,-0.236582304198228,0.97444919955301,-0.0657168799754505,-0.113624380567611,-0.033482719177875,-0.425878263466446,-0.0404476579194248,-0.157425523036224
570,782,-0.0614410537542487,-0.237714684740281,0.974270928253393,-0.0601951343310732,-0.113899468564802,-0.0328745465121297,-0.552551461127609,-0.0877581910065559,-0.00195067652345489
571,783,-0.0617771040201513,-0.238854169366925,0.974110852682616,-0.0569094924316143,-0.117948397283156,-0.0291525754349376,-0.632477053315764,-0.379862425482533,0.285614821137072
572,784,-0.0620764893738924,-0.240004497402976,0.973999548621139,-0.0567632129616024,-0.122305796956537,-0.0194934687504729,-0.370629927439831,-0.454923526325321,0.822286102008134
573,785,-0.0622520009610781,-0.241265156784863,0.973966198658316,-0.0587743439228627,-0.128208480117797,-0.00487269359698337,0.0206041883696357,-0.387666062646274,1.28959299535732
574,786,-0.0623477676851534,-0.242690175086208,0.974014416973287,-0.0598503103091239,-0.132827928462019,0.0111366791442622,0.458887825742428,-0.10940292039075,1.47328337736449
575,787,-0.0624092722431765,-0.244280618533166,0.974129228654891,-0.057169375264461,-0.134206153838594,0.0230349161827196,0.598576944344018,0.0239119458383161,1.16417623211275
576,788,-0.062513583750537,-0.246000957977918,0.974255176320046,-0.0468684915834392,-0.132123851394678,0.0290930101948274,0.378640174842985,0.10550461331274,0.723028911865063
577,789,-0.0626995426631494,-0.247740334865646,0.974347176380056,-0.0371168644468053,-0.132573652344471,0.0276690292683932,-0.087400378778787,0.1665237171177,0.130660318011977
578,790,-0.0630351304052371,-0.249376770768142,0.974378992322045,-0.0318688011640717,-0.132474100468423,0.0236228377967279,-0.334205458380273,0.25594231096892,-0.0957577165654096
579,791,-0.0635416776264336,-0.250857628612383,0.974361012556698,-0.0367244308964753,-0.135288602539718,0.0211445220396936,-0.328908226815427,0.159094708862879,0.0564842742432443
580,792,-0.0641356004184056,-0.252176792480126,0.974318453458905,-0.0465585146893129,-0.137111345852903,0.0198891441689048,-0.328032065907136,-0.0856929317783438,0.18509922120159
581,793,-0.0646765157952139,-0.253358739741516,0.974265455654136,-0.0540797408619751,-0.137742488202248,0.0178811415637194,-0.382030229010308,-0.325944543706291,0.109857414551083
582,794,-0.065126056781049,-0.254460033330547,0.974202211259009,-0.0603918938355284,-0.13915429793457,0.0161050764523922,-0.297142568036732,-0.450412424620535,0.129204707497846
583,795,-0.0655065718317958,-0.25554710834607,0.9741329108864,-0.064925785714461,-0.141387034452661,0.0158215789597431,0.00856879737785865,-0.456827450286265,0.274056079623242
584,796,-0.0657940557833397,-0.256688322531122,0.974065995764651,-0.0647070027138771,-0.142840097368817,0.0165561868965046,0.194044073171666,-0.398167081385231,0.366010869311795
585,797,-0.0659726313301168,-0.257920070567069,0.974003827165229,-0.0593548740317135,-0.143070578814719,0.0176127434757082,0.147340418207159,-0.328388569713023,0.373022500301873
586,798,-0.066087146310454,-0.259229808848098,0.973941040411996,-0.0520926215779323,-0.141051601073288,0.0175911741569862,0.0147991519150546,-0.151621841672938,0.261004425459659
587,799,-0.0661979549103815,-0.260593518054387,0.973869556565983,-0.0434335197315332,-0.139826342563967,0.0166549257959873,0.0295896985654758,-0.0473020910217131,0.165307733374304
588,800,-0.0663527439928715,-0.261974878423325,0.973789280540179,-0.0371545380911286,-0.136980534385984,0.0157432017565531,0.031532723017073,0.0475584402646411,0.130167621016938
589,801,-0.0665317302223262,-0.263337631157768,0.97369916827992,-0.031806743747323,-0.133674104495307,0.0136311030506201,0.0438678607372799,0.125293131025204,0.00530758344596024
590,802,-0.0667299917415834,-0.264675923440719,0.973604960061386,-0.0282276239647227,-0.130252267601113,0.0134281157718146,0.0719267538931975,0.217509060101759,0.140328981501462
591,803,-0.0669229945587986,-0.266007706642985,0.973515821842511,-0.0248622324745859,-0.127598197984103,0.0128424780383441,-0.00279470308761199,0.171962565413021,0.0996377585390834
592,804,-0.0671098748126377,-0.267331902738072,0.9734346341724,-0.0221497982456492,-0.124580257330739,0.01269269095278,-0.0745233598386524,0.300969406021523,0.10840391530822
593,805,-0.0673329484978263,-0.268612925683834,0.973385361205305,-0.0231150039360113,-0.121673839372107,0.0119295148978043,-0.0613848052906718,0.351850429044514,0.0532957084140491
594,806,-0.0675611592942269,-0.269818757609444,0.973356514835305,-0.0248138768039341,-0.119191191280482,0.0115456310422314,-0.194516859063725,0.408573666890159,0.0700425044435113
595,807,-0.0678958140381765,-0.271031225485291,0.97334057774714,-0.0280377946347414,-0.11809492978289,0.00971220452565843,-0.24628279065471,0.330963498359347,-0.085541377422953
596,808,-0.0682663472662276,-0.272222439607485,0.973334908698175,-0.0279879597481091,-0.115265959847688,0.00806523206825081,-0.33399825848072,0.207974860125225,-0.163393341109905
597,809,-0.0686636005015017,-0.273445339488833,0.973350444766258,-0.0266932617594195,-0.113706413977689,0.00698648763087961,-0.332236861082632,0.141933871259856,-0.177741032478982
598,810,-0.0690135522917363,-0.274723955467643,0.973394384493738,-0.0238624336178435,-0.114764217846109,0.00627141256413847,-0.275883925856324,0.120155284817021,-0.175864151125507
599,811,-0.0693063386688905,-0.276071302164679,0.97347239857568,-0.0203227433970069,-0.118316248419313,0.00565367249368047,-0.251150622396623,0.12448013630889,-0.194095886930986
600,812,-0.0695906589380104,-0.277492025211352,0.973686062195297,-0.0183550422775932,-0.123358588927558,0.00572753683531337,-0.212814405664501,0.0997431943912753,-0.211231604970934
601,813,-0.0698058190848552,-0.278938816502106,0.973973237212583,-0.0181808371369803,-0.130489781366951,0.00680007649695494,-0.134393960781731,0.0595329346433966,-0.118837217522431
602,814,-0.070099493665719,-0.280438769668923,0.974316763398711,-0.0231557237554664,-0.137861923635103,0.00849511243025819,-0.0258040149078439,0.0372121848380128,-0.0289871502371982
603,815,-0.0704710526230949,-0.281939079972573,0.974715715905316,-0.0312865438072527,-0.14365320303589,0.0109655625992344,0.0631669371837295,-0.0160582468939517,0.0430132614167923
604,816,-0.0709556430204149,-0.283446855890301,0.9751598123102,-0.0401499250490666,-0.147985040588635,0.0130518125107691,0.110473199238983,0.0887994110210399,0.0326694728525028
605,817,-0.0715509956402256,-0.284921865544559,0.975636485155074,-0.0497587626461053,-0.148134243693341,0.0148734293874294,0.0993633349662458,0.165070069611831,-0.0149317241230426
606,818,-0.0722450015433891,-0.286341227719056,0.976130669728981,-0.05735248583128,-0.144859602023448,0.0155477828300335,0.129715849291765,0.271937587085888,-0.138620853127787
607,819,-0.0730248766146228,-0.287704427745501,0.976624201297002,-0.0643843114121414,-0.140130687138935,0.0155208075010005,0.0864071243234707,0.349923686827569,-0.206435917169256
608,820,-0.0738969214624279,-0.289006800950338,0.97709904362787,-0.0717020316857464,-0.133254823262026,0.0154180632264178,0.101271075270434,0.485991686922515,-0.201850733753976
609,821,-0.0748372353650191,-0.290249628683703,0.977538032060067,-0.078497332391076,-0.125304671954052,0.0145368651280539,0.108000696078989,0.560528835168189,-0.240053561473767
610,822,-0.0758280321815338,-0.291429795861894,0.977934675600977,-0.0831441930698208,-0.115318478020715,0.0139497239063903,0.116410173077058,0.604383398120653,-0.22376855193913
611,823,-0.0768319184916693,-0.292542082929129,0.978287577929218,-0.0856226182847364,-0.10543133624205,0.013777474148738,0.0691788556721403,0.602370667527826,-0.187692158182313
612,824,-0.0778149566609729,-0.293562521570467,0.97859831331051,-0.0859858244072728,-0.0947167576224392,0.01356219928703,0.0469772568759113,0.528809752660562,-0.194918481772399
613,825,-0.0787356791899861,-0.294473226898031,0.978858894291031,-0.0840001002118491,-0.0841030060718833,0.0131329301489573,-0.00464203388271641,0.467781047611518,-0.203376486437363
614,826,-0.0795820360931835,-0.295281703999856,0.979067449700162,-0.0804995414258747,-0.074077200164006,0.0124883927378636,0.0133566280410563,0.448152950838411,-0.180552125752219
615,827,-0.0803844548488629,-0.296003064126458,0.979221802633669,-0.0779136649115514,-0.0658664335058554,0.0111162225076559,0.10301797865037,0.407416814764935,-0.154010880832756
616,828,-0.0811928503307555,-0.296692149173451,0.978966100908113,-0.0785614585611916,-0.0610529534868981,0.00843412786503104,0.226042350076494,0.385556503300046,-0.0157060811464642
617,829,-0.0821803044425651,-0.297392244990111,0.978989066499048,-0.0806701803462037,-0.0587097897482892,0.00687410621002874,0.211081411529314,0.269618605349197,-0.0358773647099271
618,830,-0.0829637739479423,-0.298027347090319,0.97899125329685,-0.0789586525822322,-0.0564418348617926,0.00561926181442741,0.185579445259963,0.292143569501823,-0.0112396645356509
619,831,-0.0838834785739667,-0.298765838948229,0.978926430416074,-0.0773762019462436,-0.0572383562656912,0.00392906809005596,0.165100317763669,0.280134616421946,-0.00814205635146988
620,832,-0.0846990903838113,-0.299479256014591,0.97878894646501,-0.0753637546142933,-0.0570037494873525,0.00182405353040081,0.109450489751367,0.219921804684406,-0.0189443231978715
621,833,-0.0855518911244972,-0.300240885400769,0.978580706115427,-0.0749035924056522,-0.0587588072525118,-0.000676209583860985,0.0735037442727055,0.183816995048149,0.00792018943970657
622,834,-0.0863785300270653,-0.301023762671442,0.978311140668438,-0.0729604779471844,-0.0612333083655953,-0.00394027201040964,0.0513306357257938,0.169204576456469,-0.0461053369475607
623,835,-0.0872244857284662,-0.301815376292822,0.977992512264581,-0.0722272188820645,-0.0635232537932419,-0.00672507889548449,0.0355663806012856,0.0955066582571607,-0.00855856175819918
624,836,-0.0884279973832975,-0.302924517060695,0.976938735741996,-0.0683895088838834,-0.0604486098459343,-0.00628352470958308,0.0480149396280373,0.0827210434445437,0.0214103306475702
625,837,-0.0892597182344954,-0.303573965433695,0.976717528516847,-0.0689100271653464,-0.0603193945485117,-0.00675231726662117,0.0823887725152866,0.0180181453812974,0.0915642612515075
626,838,-0.0901026452248858,-0.304176778845115,0.976476256813348,-0.068666871340591,-0.0559514154511876,-0.00878657529665138,0.0402993757904497,0.137756677000684,0.0413848191161174
627,839,-0.0909976709577466,-0.304720326083571,0.976212240504294,-0.0721514682017466,-0.0517929240777136,-0.0110414197770017,0.0531218987822816,0.1233130885064,0.0957036964647152
628,840,-0.0919189120488385,-0.305177716457286,0.975953389964303,-0.0747722613809622,-0.0459075888818386,-0.0122302593694329,-0.00728028482767888,0.206868702449993,0.104471292484427
629,841,-0.0928171355397186,-0.305518457739019,0.975724040037504,-0.0748713961046278,-0.0372753090968447,-0.0121324104819675,-0.0550853612385154,0.25493365110681,0.0701254212258998
630,842,-0.0936575571569591,-0.305725291461947,0.975533758803603,-0.0731572786530784,-0.0275380515928103,-0.0108454585048142,-0.0358188874746411,0.238340433796586,0.077831636948218
631,843,-0.0944295665929285,-0.305806036772617,0.975379255906735,-0.070590843392429,-0.0176139395204066,-0.00895140975880765,-0.0408833406741158,0.295459254027159,0.104216988760215
632,844,-0.0951332939543553,-0.30575257928761,0.975258828347784,-0.066723778764462,-0.00628758526774691,-0.00676147387204341,-0.0626739271171883,0.297732404451625,0.0778842623307516
633,845,-0.095792238243392,-0.305588370974727,0.975161703148998,-0.0637213302454255,0.00299269792407467,-0.00462092111234337,0.0216054334543708,0.249668124887347,0.11076726068468
634,846,-0.0964355137215338,-0.305329913690715,0.975082592452846,-0.0629298018586926,0.0120776085700431,-0.00188871003050289,0.045540614879498,0.260763839837632,0.206201960000848
635,847,-0.097030808301431,-0.30500785211375,0.975024337300442,-0.062099144679675,0.0190782622073446,0.000201863722437126,0.0574795962546804,0.231084379422077,0.183726610670454
636,848,-0.0976196378465449,-0.304589211465643,0.97497098944284,-0.0589800131228242,0.027922979270494,0.00150766623882571,0.0334857455022837,0.293015073005208,0.0781696170860277
637,849,-0.0981475656943421,-0.304075176573888,0.974926563503144,-0.0549068931840429,0.0364446556092194,0.00240786538064437,0.0378280888726755,0.318957305648618,0.0405175164940868
638,850,-0.0986075019085229,-0.303465757643996,0.974893904975428,-0.0507877295029442,0.0457363040659102,0.00320867687098347,0.038878736566531,0.338885081698422,0.0254128634343158
639,851,-0.0989841256405434,-0.302781774436546,0.974876603768919,-0.0452123753376937,0.0540689955094328,0.00355043551254537,0.0600214911233149,0.315088231083565,-0.0260931703253431
640,852,-0.0992546747666339,-0.30201391333549,0.974878822568061,-0.037617602429564,0.0626801337674986,0.00363733608635574,0.0509576844542044,0.266013792001374,-0.0973589675469101
641,853,-0.0994266828839812,-0.301171306199378,0.97489878944743,-0.0307035900290096,0.0702608433412094,0.00379813586864501,0.0783648650447217,0.182710091691159,-0.0873637321038502
642,854,-0.0995044591180093,-0.300276776441089,0.974939135332297,-0.0229163643799065,0.0766807102288711,0.0042472264706257,0.0956806838359717,0.230339429582994,-0.0549537021397365
643,855,-0.0995051050258421,-0.299342818117369,0.975001290298943,-0.0152289857399057,0.0809793722612987,0.00473509485221523,0.150873813074172,0.192349432447758,-0.0342574385344336
644,856,-0.0994425813413399,-0.298361986893741,0.975085996163124,-0.00846690049165609,0.0853428421786753,0.0054303206452357,0.23398782541543,0.150814934737624,-0.0107196310007289
645,857,-0.0993163043736487,-0.297333858892516,0.975193137959102,-0.0017548714945905,0.0898193022180563,0.00590737614458797,0.267086497086057,0.15534273689086,-0.0319443685396669
646,858,-0.0991051943305381,-0.296245345034955,0.97532856032671,0.00725307932821825,0.0955742334126486,0.00666421849710978,0.307559472306619,0.157114664187797,-0.0650639814744434
647,859,-0.0988427822918647,-0.295087793090444,0.975283335231577,0.0145937589874265,0.102649488500289,0.00851621458191956,0.217465214284574,0.218039267948644,0.0857317267024428
648,860,-0.0985921175319296,-0.293859825597363,0.975336246609165,0.0190103554174337,0.110582536035864,0.00964909287977109,0.178371766958292,0.345268976328638,-0.0248652296577532
649,861,-0.0983750138148661,-0.292764332628029,0.97538192463635,0.0221872153936116,0.11295012368263,0.0113348995601683,0.17492228434072,0.302144425449617,0.0982552423252089
650,862,-0.0982109894266036,-0.291970426677246,0.975390020206869,0.0248826533744579,0.111583467623852,0.0118886964671489,0.164160256205997,0.287564188281129,0.0446929418087326
651,863,-0.0978226113764127,-0.291185619255849,0.97514215812013,0.0325681230412294,0.111838898579127,0.00910463930532127,0.196769645348324,0.274550855465195,0.0111174333897858
652,864,-0.09768140988964,-0.290024820344012,0.975005373499517,0.0347580047708522,0.114598470000918,0.00760106111571711,0.193595223171184,0.201173812534299,0.0153922624245786
653,865,-0.0971063434872506,-0.289119415786841,0.974858884343785,0.0404661274884957,0.112474003398046,0.00655802875176908,0.245903888120608,0.16335951633026,0.0985193762135929
654,866,-0.0966144570956428,-0.288132009990218,0.974679086795303,0.0445261068197493,0.110286861429787,0.00467745009407713,0.254858235606835,0.112556814939329,0.0936254864827836
655,867,-0.0960978680513012,-0.287148297388825,0.97449331041268,0.0473128992893811,0.107249813505007,0.00328144428795291,0.355284672135797,0.0947394876252409,0.155720793430526
656,868,-0.0955965372838439,-0.286139925392858,0.974295103868603,0.0502820887358626,0.105526088632792,0.0013675886982334,0.351216069435162,0.0201908360518735,0.103527482645613
657,869,-0.0951238339371214,-0.285184802364513,0.974097053652984,0.0521050691383655,0.102878166468865,-0.000101272715754433,0.341940394157996,-0.0307968906058193,0.121703681828166
658,870,-0.0946714522448588,-0.284242279171019,0.973904886945949,0.0537522056097691,0.10101601183477,-0.00173205807124482,0.291046491286,0.0641011983226012,0.079981333554156
659,871,-0.094207585413252,-0.283304414871843,0.973722014273199,0.0561140105405283,0.0992150748193387,-0.0033133980281784,0.262369591658546,0.0586116939873687,0.0439296105590522
660,872,-0.0936996950519593,-0.282369135352396,0.973552482111786,0.0602373875038085,0.0966438479273437,-0.00491428784026456,0.20008562108961,0.0286034564282321,-0.00438193897945342
661,873,-0.0931501355653146,-0.2814290079413,0.973399657185926,0.0637882870239693,0.094776388494349,-0.00577262179205267,0.141654159156144,0.0736956189445268,0.0346206755017208
662,874,-0.0925562467962385,-0.280475203225462,0.973271683061072,0.0675501082116226,0.092683083110545,-0.00561772459065227,0.223875223761033,0.0417888481874909,0.115795795523868
663,875,-0.0918819842509554,-0.279513826927601,0.973176301130282,0.0719389546987129,0.0907492522770122,-0.00476177324236457,0.210042768809906,0.0150806129635852,0.168334570238875
664,876,-0.0911224093070348,-0.278537362108033,0.973116670603004,0.0779834048635814,0.0897245988397655,-0.00346590827830188,0.229626871732925,0.0273669375502104,0.189556159104752
665,877,-0.0902917301942052,-0.277540892379798,0.973095282457468,0.0849619699440187,0.0901448681046918,-0.00168825909373398,0.28332660689809,-0.0384453292377614,0.189652403724411
666,878,-0.0894173915955367,-0.276531673833903,0.973107843625419,0.0915520702582983,0.0900963532744927,-0.00017651031377195,0.27000741837448,0.00408831923974079,0.165271337469359
667,879,-0.0885085771932331,-0.275524426260042,0.97315151329492,0.0977524195571389,0.0903368867743868,0.00126660181318843,0.289168664184422,0.0352207955640345,0.145560710765713
668,880,-0.0875781053758653,-0.274513082595955,0.973223004262546,0.101800811354958,0.0915355745971289,0.00252693027558868,0.252068723881734,0.0295766536407664,0.106713719103727
669,881,-0.0866380742931746,-0.273497429679295,0.973313314505547,0.102964218625676,0.0927224671480599,0.00355459764394745,0.232725906345179,0.0872506805178238,0.0959237976960934
670,882,-0.0856917657938973,-0.27247309561572,0.973413710503505,0.102046044306217,0.0940539455676116,0.0040517077894948,0.183529429647673,0.121969922070888,0.0643755055339097
671,883,-0.0847313237419612,-0.271414990260702,0.97351844542682,0.102036893632604,0.0976869106926926,0.00410835258553254,0.178821247288355,0.0986155529536638,-0.00655550539988647
