,Frame,CoM pos x,CoM pos y,CoM pos z,CoM vel x,CoM vel y,CoM vel z,CoM acc x,CoM acc y,CoM acc z
0,479,0.194698954793371,-0.190638960292358,0.949360900943493,-0.0926455723443381,-0.0269577675951923,0.000624898403336303,-0.0921022776653129,0.256511095853579,-0.0320131082042906
1,480,0.19380212858472,-0.190417174680634,0.949191759625856,-0.0943505249682572,-0.0159371059841858,-0.000306752959187433,-0.0594500228298154,0.273655428378005,-0.00923010102169875
2,481,0.192969869237908,-0.18997084113127,0.949008567192777,-0.0928831351042657,-0.00247170328723377,-0.00134000647330801,-0.0116202185577339,0.284323830126323,-0.0229536143769273
3,482,0.192208795081308,-0.189267573047488,0.948833810845502,-0.08903504736199,0.0136772706121874,-0.00179392260321392,0.043861681375176,0.212205209127845,0.00139755984857861
4,483,0.191443287189702,-0.188248541520787,0.948872904028254,-0.087639510504336,0.0316646728916349,0.00523941247922284,-0.266288940341404,0.0638498628301817,0.468776290681622
5,484,0.190617303675795,-0.18684494538984,0.94905315699723,-0.0902976691771381,0.0518995884987846,0.00717836654396899,-0.628753889423781,-0.0348147084878516,-0.096849989682941
6,485,0.189899387513562,-0.185258416501862,0.949012573999937,-0.0895922581292534,0.0667873290257086,0.0139479386408928,-0.145138723989587,-0.0177435732099011,0.662806564549096
7,486,0.189549485163546,-0.183719398411243,0.948959387595935,-0.0809333450811075,0.0763900275108294,0.0258974739223549,0.111209307407361,0.0028423904703837,1.22970876418374
8,487,0.189514063350769,-0.182428508086721,0.948859824246664,-0.0655252588227194,0.081565377481058,0.0312002412501688,0.236399584836993,0.174014240267947,0.829639962426801
9,488,0.189602061040111,-0.181230603942746,0.94877574650113,-0.0504104066128412,0.0823359789425275,0.0350654709278703,0.288727024791424,0.0387893832955444,0.793809201190953
10,489,0.189840446871602,-0.180299505667483,0.948709566350454,-0.0331982231606498,0.081118427618374,0.0344569630809693,0.0453567895779459,0.090652176643481,0.458758440774607
11,490,0.190179896610052,-0.179523495327228,0.948566892985065,-0.0174809871066076,0.0792098781958796,0.0300987251122518,-0.145586018213439,-0.0035131894868843,0.206836349461815
12,491,0.190616449974162,-0.178813727363621,0.948373626516543,-0.00637688726995132,0.0764299261003243,0.0251126417217858,-0.388854964055739,-0.0712403228165611,0.151660104886958
13,492,0.191079559644324,-0.178161763574574,0.948158992196589,-0.00125307782679291,0.0703959866644117,0.0240625555216536,-0.301704503911641,0.00739635563182362,0.373764960762859
14,493,0.191506572730391,-0.177530517073646,0.947958371440762,0.00117141316107759,0.0619146719324592,0.0253530192018256,-0.0243056091010588,-0.0208769016187001,0.444632827334552
15,494,0.191919013304434,-0.176904584394916,0.947780388442009,0.00488477153846169,0.0547677115269497,0.0246912184410506,0.0387235191390935,0.0423291756492071,0.261115326457159
16,495,0.192316064753179,-0.176252936071742,0.947605083851584,0.00973714764744334,0.0530546006393017,0.0210236429364687,0.065242245084705,0.10598611339147,0.0108965470249219
17,496,0.192439046245904,-0.176060326054709,0.947411205860379,0.0142847231635918,0.0534072346914249,0.0149508460910597,0.0524055415663733,0.150512421446363,-0.195340602654533
18,497,0.192635203849297,-0.175512555355833,0.947187125112805,0.0182308380427118,0.0579939264481908,0.00752302439697652,-0.040099490350065,0.0513069867907847,-0.333020866636545
19,498,0.192803302714184,-0.174879828865774,0.946935372820885,0.0195367451762011,0.0623848580998541,0.000807121737895581,-0.0412341548666084,0.059488318979534,-0.357485945486509
20,499,0.192847518853526,-0.174254832660174,0.946666211177625,0.0158945695904249,0.0651826506214074,-0.00482524416571751,0.00829095201339062,0.0870192623371155,-0.364451804050863
21,500,0.192813558529428,-0.173527582253519,0.946376776988371,0.00979543589797158,0.066507900666201,-0.00900793217211673,0.0365487473876742,0.0206252149455106,-0.335779085195849
22,501,0.192714225712772,-0.172777507272572,0.946105106961042,0.0014910535524411,0.0678578400138185,-0.0118511475214676,0.121426920180448,0.10065922388076,-0.280924047233511
23,502,0.192559473632635,-0.171981197810311,0.945839383172424,-0.00706408760808226,0.0690297777202048,-0.013552114364721,0.139931132273647,0.128639219062034,-0.218503227586176
24,503,0.192345938165445,-0.171130943329199,0.94558133274807,-0.0131680885101527,0.0711080606639282,-0.0141874749452046,0.127107401216019,0.158796745543122,-0.123767216324621
25,504,0.192099925876656,-0.170207569820099,0.945331279095587,-0.0164108565713951,0.0738682990368539,-0.0143551082478522,0.101492968979932,0.112186795671471,-0.0714229305261095
26,505,0.191853607008638,-0.169255768712651,0.945089715866469,-0.0164234347068877,0.0754807677064081,-0.0136933958253163,0.226602640401043,0.0247724210087201,0.00465553375872652
27,506,0.191632824388031,-0.168329380995675,0.944859585618881,-0.0160778019627539,0.0747742448600052,-0.0122721432826942,0.252369409986107,-0.0324534796958216,0.0643558930634738
28,507,0.191418410005262,-0.167486193531424,0.944644231716791,-0.0160806490173681,0.0703585837009392,-0.0102585490442707,0.27489529523388,-0.112343379302378,0.115359353588858
29,508,0.191235562534542,-0.166715871035855,0.94443593392898,-0.0158996560335487,0.0670963456617279,-0.00810672071889437,0.277136760697849,-0.271412829876226,0.166576149536557
30,509,0.191034989914383,-0.166018565048621,0.944241192247049,-0.0149240577279616,0.0663398225314771,-0.00524927958459234,0.315412813395616,-0.296039301257721,0.278619347712676
31,510,0.190857946824529,-0.165329759993871,0.944048448684483,-0.0114687759381194,0.0693055675835248,-0.00260600927878599,0.305587250910444,-0.357153608464867,0.350885942509491
32,511,0.190709285969295,-0.164619171374261,0.943963701924257,-0.00516610741757069,0.0743590099955517,0.000298148871472632,0.256358596746462,-0.332284682343285,0.379650524193435
33,512,0.190605059704642,-0.163775375807572,0.943902630357048,0.000320607293901115,0.0793677711537478,0.00250371036151012,0.25952621082509,-0.280814603604914,0.334303797273224
34,513,0.190477965400834,-0.162870607712415,0.943856632127673,0.00137345751414719,0.079166800537929,0.00492664364882514,0.279320393496777,-0.216262112875391,0.286582099371368
35,514,0.190310554454473,-0.161859132776007,0.943823186230888,0.000288733086299047,0.0775519436245422,0.00642585739788206,0.264028875830162,-0.13457677696417,0.178648372046688
36,515,0.19007889211337,-0.160738655678253,0.943792469769576,-0.00255655948974218,0.0767456881618047,0.00644730734761716,0.172160823755895,-0.138780329133103,0.0542331753461905
37,516,0.189782402671316,-0.159483422840393,0.943758422541075,-0.00688263575544051,0.0791980479064224,0.00540234226946589,0.126880191705762,-0.145917573625242,-0.0425139168046302
38,517,0.189391607303821,-0.158106589041484,0.943738653259446,-0.0164605976433657,0.08399997967906,0.00598651979877513,0.17726991487707,0.0237772114446769,-0.00392438234579982
39,518,0.188930928269693,-0.156624001873378,0.943739950897026,-0.0269577078395485,0.0898942057743965,0.00642552032740789,0.173174970421811,0.158365289934533,-0.0586201614830296
40,519,0.188399254205117,-0.154982463637165,0.943769303906129,-0.0355232884459791,0.0999821402345306,0.00494372202463507,0.0760859930911613,0.288651078403307,-0.224132832710938
41,520,0.187822933669591,-0.153321521046852,0.943853043947383,-0.0410445904415644,0.112287552431415,0.00123548623504722,0.0336939330653397,0.447688195632806,-0.479901305649652
42,521,0.187238815683374,-0.151745925569937,0.944154654638229,-0.0445738824762588,0.118783494016547,-0.00275123550223058,-0.0372117574347387,0.368015177526658,-0.665436392439232
43,522,0.18665524605873,-0.150589656393376,0.944477869636911,-0.0476111300385798,0.113016824641813,-0.00617963395761529,-0.0477755571864334,0.312215446585486,-0.733224420785606
44,523,0.186115382686301,-0.150664559871422,0.944798001626032,-0.0503448202516184,0.0831208932469935,-0.00864119807139004,-0.0723705065762456,0.214259832007109,-0.704759531511611
45,524,0.185707793867306,-0.152385198117365,0.945087090813688,-0.0486955901032082,0.0309040917798549,-0.0101822087548508,-0.140469324113569,-0.0123777137772809,-0.559847494104973
46,525,0.185487471513328,-0.155297304260052,0.945322158994281,-0.0434708897250037,-0.0317831287522658,-0.0107567373963207,-0.0873582961809686,-0.319347553311739,-0.430234857655786
47,526,0.185468313689103,-0.15867220861244,0.945489163273561,-0.034974277593469,-0.0875417470227654,-0.0107347733258952,-0.00973698258500581,-0.510431541647392,-0.287635893673093
48,527,0.185632164608617,-0.162001517852681,0.945621787371391,-0.0246552078020139,-0.130773051689677,-0.00929421280597446,0.0346211131991467,-0.602552367217176,-0.0938090557546091
49,528,0.185936859219224,-0.164983579253574,0.945772165947455,-0.0163707134075332,-0.159871985363144,-0.00414342630804889,0.189567836498644,-0.502924422571595,0.175792353913592
50,529,0.1862696387009,-0.167551339265422,0.945979550033973,-0.00980443239418862,-0.178710732503474,0.004058596508563,0.389275972434644,-0.514707592352289,0.414447391659065
51,530,0.186600022781758,-0.169682591081336,0.946260923427965,-0.00595347000586569,-0.189343774621534,0.0146262841905717,0.524354585938419,-0.592096980754112,0.624790221869971
52,531,0.18689167514101,-0.171407281480647,0.946610845454854,-0.00467439777450398,-0.191323769390425,0.024713765290465,0.518192772112928,-0.505335972705168,0.653095824251021
53,532,0.18715825711264,-0.172765038541099,0.946999697058464,-0.00173047032455597,-0.186086596395683,0.0312262890381879,0.352990306546769,-0.508908253977137,0.482062753131126
54,533,0.187399454433358,-0.173762223639291,0.947394803827238,0.002176228263076,-0.173906068599507,0.0344727554840856,0.185315132298263,-0.585191711691021,0.299258709646777
55,534,0.187644462515415,-0.174438972215571,0.947769257497901,0.00730546658493337,-0.158901268930602,0.035533452696281,0.0436650654845329,-0.626032811338752,0.170117372877241
56,535,0.187917000392888,-0.174824555619342,0.948108303882539,0.0146037151408571,-0.14321785444001,0.0349904802924336,-0.00668285363839675,-0.808856379475033,0.0827852339726286
57,536,0.188211879040262,-0.17496661905839,0.948412347371563,0.0202193787306109,-0.126921695203941,0.0350060235018654,0.00638209667990176,-0.721831987036839,0.112812041335482
58,537,0.188501141826417,-0.174882201430244,0.948688419220617,0.0244366610639933,-0.109367214063272,0.0353503352093062,0.0308902067122207,-0.634772000251467,0.134234532579956
59,538,0.188752949015979,-0.174615591469534,0.948936686425968,0.0265283903126404,-0.0914969333593484,0.0350837501576568,0.0989409491597762,-0.44086745320382,0.0722763600124948
60,539,0.188940056487005,-0.174216206362733,0.949154223070485,0.0260410799035976,-0.0740278370031556,0.0338325631595229,0.157147967643296,-0.332106547265638,-0.0319172715627196
61,540,0.189083879916012,-0.173734896565383,0.949326744036804,0.0250621444959287,-0.0575181636321899,0.0298717937125934,0.0477343012790181,-0.308659024952146,-0.233946927414153
62,541,0.189183497504724,-0.173246524048468,0.949444786884807,0.0219446132168539,-0.043525683475952,0.0245237607279819,-0.0639418140057215,-0.23719315819912,-0.370853505839144
63,542,0.189220881068087,-0.172814999236027,0.949506937133206,0.0162107213353744,-0.0343326908845132,0.0184319181521754,-0.0942886249588798,-0.25295881340914,-0.483345829444629
64,543,0.18921358375584,-0.172508444726477,0.949512387005197,0.00913553269978855,-0.0297924175227745,0.0117543441775328,-0.147238781070893,-0.305402417624522,-0.56748767199857
65,544,0.189180352516525,-0.172366751105132,0.949465005045727,0.00234323440283129,-0.0288247797228564,0.00519407923938833,-0.156896603682216,-0.30552902521442,-0.575668892426675
66,545,0.189158804802764,-0.172408293972881,0.949364787611966,-0.00171539045287606,-0.0303479551049311,-0.00213263981500624,-0.122748003258806,-0.315333307269469,-0.627480598981098
67,546,0.189172971070886,-0.17262401391203,0.949214368582761,-0.0027461418135471,-0.0338021134621043,-0.0091842243781927,-0.0866709179162456,-0.396710733639303,-0.591311292739092
68,547,0.189256267655501,-0.172936851585876,0.949020197388577,-0.000350773203933397,-0.0384698385605191,-0.0160579299430805,-0.0279733179024262,-0.437104389970018,-0.557293873147686
69,548,0.189400233253617,-0.173417411512164,0.948786916051012,0.00446463721726143,-0.045583277555021,-0.0221362067355754,0.0130844380367337,-0.566152404300266,-0.491241356231418
70,549,0.189564160761398,-0.174049141978395,0.948528407976066,0.00731824685814137,-0.0555526104934158,-0.0263582085500874,0.122085645616455,-0.548420197076723,-0.392501197032538
71,550,0.189741662074023,-0.174797428046874,0.94825039053768,0.00963382126605835,-0.0661042833151377,-0.0298856920961639,0.120725450745561,-0.487651582465862,-0.347894650638028
72,551,0.189926726219608,-0.175631813621825,0.947953000049762,0.0115891885124679,-0.0757799685633277,-0.0332553977955169,0.0978116803725342,-0.509388848592566,-0.343492635065311
73,552,0.19011325297048,-0.17652826479334,0.947632191612318,0.0138209727711099,-0.0838102832432866,-0.0369238306352963,0.0222357315164102,-0.44388103402427,-0.368540876621023
74,553,0.190276680898365,-0.177460427656055,0.94728529091857,0.01522612520813,-0.0906416794483295,-0.0405477141046608,0.0260578670943074,-0.411914277498246,-0.374385624043745
75,554,0.190411919876873,-0.178408294497891,0.946914865772502,0.01576456109191,-0.0971029760059551,-0.0437087758645574,0.0320175032040275,-0.384472964189361,-0.363355277399528
76,555,0.190513777383206,-0.179384194325983,0.946524159088663,0.0152330870995063,-0.104301618127333,-0.0460694134124281,0.0702451122131391,-0.315256027124664,-0.317989341935437
77,556,0.190559235775707,-0.180375183032973,0.946116519802825,0.0134936458221631,-0.11160126710258,-0.0474092804827552,0.128806704541641,-0.250561142676418,-0.232874145082748
78,557,0.190542627750334,-0.181385326387672,0.945692151950655,0.0118963305665436,-0.118426847607946,-0.0488612908733212,0.183670745918734,-0.223303785351434,-0.225068942123816
79,558,0.190453723227324,-0.182418448434373,0.945252297591114,0.00962372539623298,-0.124065468654277,-0.050675926581774,0.16392318480152,-0.159162931748503,-0.242551547197815
80,559,0.190322533881641,-0.183487597427596,0.944784515404945,0.00807303849882698,-0.129557782356191,-0.0531337190028302,0.0855606947259497,-0.188931021474778,-0.248896609104185
81,560,0.19017578808075,-0.184583253854599,0.94428680439346,0.00755651505755714,-0.133222583972744,-0.0558917563326858,0.012689369261798,-0.208945443827286,-0.238947090094093
82,561,0.190050495255749,-0.185710326357482,0.943813196109368,0.00481003275303096,-0.136610755141172,-0.0507434902509446,-0.499788839094146,-0.236459669360987,0.455983047971344
83,562,0.190004733052313,-0.186932698289434,0.943410045110417,0.0026340382243342,-0.151822693211447,-0.050036601871045,-0.595715552204639,-1.1621234649641,-0.0293327791855681
84,563,0.190026203766919,-0.18823079920947,0.942983645247734,0.00654224606146339,-0.154933990942756,-0.0486269471803346,-0.409143770612064,-0.859887588774676,0.541125242462467
85,564,0.190276950803959,-0.189356148594358,0.942649476510002,0.0255048429782746,-0.139139495759893,-0.035126387153247,0.293030422862981,-0.983367375253731,1.63514735388548
86,565,0.190760539078241,-0.190106845780442,0.942470911617172,0.0432545987234159,-0.105090554178479,-0.0158411286990112,0.605075741379336,-0.60321065175486,1.75113734301698
87,566,0.191389790723363,-0.190431732497603,0.942502944621822,0.0521678192862883,-0.0686449977774167,0.0209928182331469,0.544833433363525,-0.26990232390848,3.54834080604121
88,567,0.192159760665075,-0.190432947989612,0.942856521828787,0.0533203760963445,-0.0334391117744382,0.0509125195729308,0.148059530786476,1.13289827201105,2.86818183001593
89,568,0.192865194427014,-0.190206901150807,0.943363552731359,0.0435727012942233,-0.00168469025074857,0.0677987930512862,-0.534270088919961,2.77710751379506,1.6270247582915
90,569,0.193438875734284,-0.189829192553197,0.943883890390655,0.0332908245522596,0.0109773365273359,0.0740557199189949,-0.990809460296774,2.19016951404919,0.622839516944659
91,570,0.193902954927183,-0.189643979478491,0.94434733213248,0.0203040749791012,-0.00233584019893529,0.0679965524626254,-1.29889769038095,0.973370472716474,-0.514405492470953
92,571,0.194247387508413,-0.189914438757564,0.944645300888298,0.00427220854108581,-0.0356398685785148,0.0520107822441085,-1.61723954089722,0.0448557633813193,-1.21659803759932
93,572,0.194408479646346,-0.19074251093585,0.944743722076419,-0.010276912961686,-0.0761901140179908,0.0343358165868686,-1.14002922467646,-0.822469865910904,-1.26287385377853
94,573,0.194472741049365,-0.192054456024561,0.944671939693371,-0.018166901609105,-0.109152497139591,0.020700415979541,-0.422807343861986,-1.14440636746225,-0.934113539797265
95,574,0.194522783409314,-0.193672206270813,0.944489493143755,-0.0179297690926357,-0.131694990766748,0.0119711149436659,0.242877055031267,-0.916597775503114,-0.614812722705214
96,575,0.194602143464266,-0.195380998833405,0.944239234603762,-0.00603894046840375,-0.144942098662689,0.00682603772852332,0.85962789719033,-0.727176728050316,-0.333189433446303
97,576,0.19467562490078,-0.19713683474754,0.94400663192548,0.0135095419023424,-0.148136973878345,0.00460541284438314,1.39726360293858,-0.456306491415056,-0.0292335291454914
98,577,0.196053674715212,-0.197496259692224,0.943758808869787,0.0531939580364685,-0.116314991200101,-0.00100912691695426,1.28414332781175,-0.559917844642927,-0.144116557177987
99,578,0.197199382432229,-0.197976170850452,0.943487546748688,0.0827285491637675,-0.0834144901955525,-0.00925254352499909,0.811408107941022,-0.728350619873664,-0.39368539315537
100,579,0.198350935722527,-0.198418058961477,0.943315519230985,0.0986527638947206,-0.0640695869434965,-0.0140213681501845,0.581014709626923,-0.435860183371921,-0.35356967295883
101,580,0.199487560001018,-0.19894575418491,0.943161180923295,0.103178109179637,-0.0589038581802664,-0.0167293010216983,0.31119187221456,0.185351088826569,-0.335298605769879
102,581,0.200586409169196,-0.199493599659935,0.943047723848794,0.100148938865026,-0.0593205717510327,-0.0188976955437163,0.106120623144858,0.576119156345371,-0.361851924848723
103,582,0.201347815842013,-0.200044111746284,0.942974566194285,0.0912022570929483,-0.0586532776508119,-0.0206147706206024,-0.191140084800346,0.530128827639887,-0.30309970177684
104,583,0.201824233436752,-0.200553003303139,0.942937020369931,0.0769001820203119,-0.0539368098405013,-0.0204814550744839,-0.481999739449154,0.546006428070004,-0.139005909891328
105,584,0.201982331913351,-0.201016859198587,0.942935666096776,0.0568031224968549,-0.0439146081253413,-0.0183523162298127,-0.68748447892723,0.728604494180073,0.017563708536347
106,585,0.201908312142228,-0.201395092005265,0.94292361757804,0.0349947396337427,-0.0319548112706431,-0.0158643382002166,-0.73472618454256,0.823871352934528,0.0996206215421559
107,586,0.201657724814068,-0.201782530429259,0.942950580866004,0.0121406976169225,-0.0246504333234741,-0.0112155086064454,-0.711306279932573,0.908523795744544,0.249956129002443
108,587,0.201335724792877,-0.202238779183474,0.943015306940836,-0.00851540983335553,-0.0228801210537183,-0.0049207748980544,-0.64155622092775,1.13931226971539,0.380997810961408
109,588,0.200997864322324,-0.202755977689259,0.943125586455819,-0.0251872948015772,-0.025818353948991,0.00138626157059806,-0.614488622604597,1.3931700747104,0.398690214084759
110,589,0.200638777910804,-0.203326987713251,0.943263974066595,-0.035686526618457,-0.0299058813301663,0.00464887185486111,-0.709814919693011,1.26754603716323,0.231166293648376
111,590,0.200303846109562,-0.203864274571977,0.943403696817344,-0.0387447268186444,-0.0317928315928844,0.00475736927606467,-0.783963309102388,0.974895946782474,0.032736772201347
112,591,0.200003220397007,-0.204341959177933,0.943545787056422,-0.0391541000131559,-0.0340072824760143,0.00471168722298321,-0.728024986792421,0.544824750526621,-0.00636112344681886
113,592,0.200002692422936,-0.205069342776917,0.94367523734141,-0.0376396133266474,-0.041096500309446,0.00678707700388338,-0.532299375563824,0.342358063685042,0.135832990040386
114,593,0.199746588582153,-0.205484073473431,0.94388808964879,-0.0400541498565796,-0.0407639695402595,0.00848226839677806,-0.41584871197893,0.0546664812305229,0.163335357330305
115,594,0.199688507546362,-0.205905755548262,0.944058440432832,-0.0336319331661902,-0.0457498953865522,0.0101688779369293,-0.320989782005275,0.26380167571518,0.249578479477949
116,595,0.199745456161035,-0.206367931104928,0.944234451579369,-0.0245858073249618,-0.0480899813681278,0.0140613432574838,0.0727085432644796,0.0828068723545152,0.455402343473062
117,596,0.200046786779086,-0.206856152118161,0.944354881064872,-0.0176928110166948,-0.0440074659562915,0.0183265788007776,0.298953483107698,0.124128113621166,0.327663216710663
118,597,0.200405037733797,-0.207111789505357,0.944640610761126,-0.00608966433711612,-0.0403772601926342,0.0208472516075079,0.237873818000314,0.031443136865929,0.258821752200548
119,598,0.200899389358186,-0.207061227850429,0.944896900214657,-0.000989916119776666,-0.0239666489147919,0.022738585203349,0.257918446094578,0.018565477886195,0.0823599824724659
120,599,0.201326336780833,-0.206787640400851,0.94521736831827,0.00999123495988413,-0.0123756644306566,0.0236302397318274,0.259399098574493,0.0746713004507098,0.082943156673918
121,600,0.201822428566133,-0.205976667952055,0.945482462541931,0.0207857561297979,0.0169571085607551,0.0228387942672754,0.0928805356432256,-0.150598485028285,0.0196544407233938
122,601,0.202306972757509,-0.205013221832145,0.945703993937522,0.0279545420534672,0.044764569512272,0.0213412222813578,-0.00878176287233898,-0.143952153671977,0.013747456998972
123,602,0.202755322645787,-0.203808405958371,0.945880800564995,0.0327965693959934,0.0700086370936359,0.0199448416766776,-0.0601074829250352,-0.12258062712473,0.112744223073352
124,603,0.203133354690532,-0.202396098814582,0.946012959224,0.0341819664961319,0.0924654430995921,0.0186577719606444,-0.178556164159609,0.0398923869042049,0.189345856979742
125,604,0.203450157018426,-0.200881123518375,0.946108224066417,0.0345181387901888,0.109133698546639,0.0180114015951261,-0.157725164787875,0.183876113132818,0.281917972069349
126,605,0.203733675892819,-0.199325892916475,0.946179865894643,0.0342655963738637,0.121783298278959,0.0178610523819504,-0.115330702422741,0.374675234278729,0.342956603196263
127,606,0.204012598146885,-0.197763931016112,0.946228868028994,0.0350975714063214,0.132910121347512,0.0164710606750573,-0.231022127622461,0.454564901219948,0.264195514601314
128,607,0.204303546667159,-0.196233277521981,0.946249300831476,0.0360680874905787,0.141988300342066,0.0133496069107113,-0.304060449618457,0.443483835952913,0.106032517208779
129,608,0.204611015045322,-0.194786656429649,0.946240007430678,0.0374697620931865,0.147272368480514,0.00949608426790468,-0.282962528685677,0.400806295944429,0.00141532421762667
130,609,0.204928049090219,-0.193449038448225,0.946203936968385,0.0379252193805942,0.14935899770244,0.00511270321501764,-0.200045515853729,0.396229268925069,-0.106787162886951
131,610,0.205265755288153,-0.192230980420259,0.946145703470722,0.0368984122886861,0.146491803838913,0.000932326403223928,-0.176223858953957,0.346429489211233,-0.159435657333788
132,611,0.205547883104265,-0.191268903951489,0.946085063623267,0.0339011888040591,0.13744206977516,-0.00207092661400886,-0.0265943858283025,0.246046106296091,-0.149770507927434
133,612,0.205776252301448,-0.19053814344439,0.946028995379221,0.0301737777244674,0.126483895830506,-0.00503055612920517,0.0345729083276825,0.214388258988668,-0.203831809944486
134,613,0.205944784379927,-0.190023145020265,0.94598335958306,0.0268136887286052,0.114315571856831,-0.00760792411433,0.044954977105159,0.186998259355641,-0.228535286046692
135,614,0.206056911489651,-0.189714084956228,0.945951249164243,0.0249154139702902,0.100597290408442,-0.00994680915459437,0.051688831932427,0.13303820704935,-0.250631460512133
136,615,0.206077819061425,-0.189618589137568,0.945943828061829,0.0220473708881326,0.0865360022311644,-0.0119484049441369,0.0825424006002657,0.086604552075209,-0.286662334307099
137,616,0.206040182537141,-0.189668073075476,0.945947950774636,0.0180478861053163,0.0710965622643055,-0.0134577824699812,0.0230745863083442,0.103273110368566,-0.283945950195444
138,617,0.205930428252483,-0.189870996081378,0.945968289692292,0.0148729778627935,0.0566636325975464,-0.015452991118734,0.00399265567486253,0.148201846816507,-0.356569264017979
139,618,0.20573721617645,-0.190214117311734,0.946008995104767,0.0100651389813991,0.0411985528464543,-0.0164800995102962,0.0177162725856223,0.137918944982423,-0.330241937528179
140,619,0.205465371024922,-0.190689465060653,0.946069827966998,0.00479812216469685,0.0252801971438313,-0.0170961345430902,0.0221475197155363,0.0870286446256407,-0.32719308132496
141,620,0.205105997525243,-0.191269928946514,0.94615214764586,-0.00237006096939914,0.0107148604088832,-0.0169406851029307,0.0418570203003421,0.0617021905953009,-0.306567578568728
142,621,0.204666871986397,-0.191967422205676,0.946252860150163,-0.0104181348098583,-0.00367512448318602,-0.0166722045519193,-0.0239856488640059,0.155394582864887,-0.317053860306971
143,622,0.204133074896969,-0.192750642296908,0.946369687124559,-0.0200090840485071,-0.0173958416621962,-0.0153427593566328,-0.0152349658383832,0.164630209736624,-0.261831935714531
144,623,0.20352467350029,-0.193625057880135,0.946498655421985,-0.028911648495255,-0.0304353489677771,-0.0141119289518549,-0.0512198654276372,0.207027218809511,-0.259638601464319
145,624,0.202844164976313,-0.194573415523669,0.946634509532827,-0.0384651096000936,-0.0422897449077945,-0.0127407586835497,-0.053474738732205,0.269848818256176,-0.263282800431204
146,625,0.202104717312186,-0.195586797307179,0.946770720895261,-0.0470706181162785,-0.0529913910253319,-0.0117917744976593,-0.0547575337063402,0.286615930776565,-0.289595191958231
147,626,0.20131382090737,-0.196640039579929,0.946898840286792,-0.0547998384752034,-0.062262581229038,-0.0111505411378293,-0.0497251541144998,0.294502252077891,-0.306571615924464
148,627,0.200476888997706,-0.197704950432978,0.94701191844297,-0.0619909358432407,-0.0697685738123462,-0.0108585230850122,-0.0317148453581091,0.289937898447535,-0.323361688123639
149,628,0.199603428724161,-0.198740055109306,0.947103295785086,-0.0684404221317186,-0.075301855535098,-0.0111935073380238,-0.0474931196208088,0.234996676565591,-0.352749622250889
150,629,0.198735927360737,-0.199690407350261,0.94716386875429,-0.0731977967879907,-0.0784675655420848,-0.0118693073931561,-0.0227977357485304,0.233138388292533,-0.358028517187509
151,630,0.197811773831754,-0.200578206253105,0.947200261241268,-0.0773129259612451,-0.0792081525951209,-0.0126792524735368,0.0386530495142769,0.215220048419829,-0.355091066642414
152,631,0.196845242585087,-0.201352482006413,0.947210469626227,-0.0805815038782297,-0.0774047513446759,-0.013674804296979,0.141920173161807,0.190451324861019,-0.353998231696533
153,632,0.195862948771732,-0.201960599620588,0.947191011251918,-0.0830216711334077,-0.072049947857074,-0.0146832776271602,0.157484070687672,0.110503999152692,-0.326964226130284
154,633,0.194879073980058,-0.202392505276441,0.947141999990653,-0.0847880722958831,-0.0641994286529335,-0.0157609907257674,0.179686192154074,0.084890672715896,-0.306557393411568
155,634,0.193898479714556,-0.202636252944311,0.947066466341638,-0.0866154174057652,-0.0551056577320404,-0.016553858039542,0.209356954539058,0.0904797474454014,-0.270323033664228
156,635,0.192932616562998,-0.20269540051298,0.946973228663272,-0.0883620711188975,-0.0451131706586828,-0.0166748480730786,0.282000689210736,0.104529826664228,-0.213228186597582
157,636,0.192007950450456,-0.20256669756935,0.94687399402984,-0.0884608941216912,-0.0327507316936715,-0.0166545446359854,0.280981978911517,0.122667837183673,-0.196636304664862
158,637,0.191147550303796,-0.202252983367618,0.946785743190996,-0.0868854178507023,-0.0198650239372479,-0.0162287404781609,0.192036454915828,0.104011076247643,-0.166001679329053
159,638,0.190326726860828,-0.201777130774408,0.946734069419865,-0.0850812147447912,-0.00700175551674716,-0.0146361415614986,0.244536549533506,0.08655701628519,-0.114179111239004
160,639,0.189580980776714,-0.201198060056935,0.94673014751535,-0.0824180999769693,0.00550530853242381,-0.0128800867998133,0.162008909707087,0.0607963122784877,-0.102896341090908
161,640,0.188920723196813,-0.200521118465328,0.947009397277211,-0.0810940496115672,0.0166649132226344,-0.00199472310107855,-0.321309310627144,-0.153625419344725,0.475920628908976
162,641,0.188438358278148,-0.199776519064079,0.947381384854093,-0.0796920204352595,0.0274935011754593,-0.000946371097971802,-0.777339889070007,-0.292761080066951,-0.369103887831109
163,642,0.188401954892007,-0.199378138678099,0.947462264170463,-0.0712548464157435,0.0261571408800148,0.011601556608935,-0.487456963974377,0.0522337765420994,1.04334489761493
164,643,0.189043292381666,-0.199513552807333,0.947663824166704,-0.0526112066242463,0.0132134152793289,0.0310008427227609,-0.463824748486242,0.139488718757737,1.72168988566758
165,644,0.190267784833235,-0.200057469179587,0.947906627961423,-0.0255959736011279,-0.00534309868565585,0.0477156456821746,-0.409024375230834,0.0432205489342331,1.74280016997456
166,645,0.19150218592596,-0.200737360506954,0.948149525035989,-0.00248301353578099,-0.0323521272269622,0.070216073321972,0.00453016382735945,0.167427069548382,2.37690330403956
167,646,0.192683637113497,-0.20148035133975,0.948495663890365,0.0248297261856111,-0.0566008678056319,0.0834270327236114,0.45090215700012,0.171490226844336,1.67848344973396
168,647,0.193947534251617,-0.202157320756948,0.94878102197532,0.0604368321950406,-0.0643357217949946,0.0828307864028173,0.510676359079482,0.0336003890650604,0.697001521299164
169,648,0.195189182511382,-0.202555881345913,0.948945831156554,0.0945248341587577,-0.0534480739139883,0.0695327022973582,0.477566475538305,-0.457875230761,-0.369963588445643
170,649,0.196402771867302,-0.2026156902108,0.948931926643275,0.11570044522358,-0.034152695949332,0.0508926469414722,0.511117890358844,-0.608038678140861,-0.975462425390315
171,650,0.196985728961293,-0.202025135320562,0.948690347351956,0.11186794784422,-0.00230265614547739,0.0302334428611805,0.52785095992653,-0.552280189382733,-1.19577101161033
172,651,0.198348988526929,-0.203099459795985,0.948345980381037,0.112049661316356,0.00767609477054316,0.0103326244908256,0.247519422489116,-0.551154896420511,-1.2448101332361
173,652,0.198836617419271,-0.202602495885319,0.94789638295604,0.0978576523567542,0.0270340053872729,-0.00501651679860491,0.084935399567598,-0.426926882322953,-1.00241317006345
174,653,0.199220565039839,-0.20192558472439,0.947405418489783,0.0762936798916065,0.0398716859423016,-0.0132603843187334,0.0228903939297425,-0.24287091060067,-0.579920452570691
175,654,0.199511210898612,-0.201051140945298,0.9469344323116,0.0524246014570365,0.0484715020142988,-0.0155014747012086,-0.0468482979441332,0.0632235155208633,-0.191651984960211
176,655,0.19963500858059,-0.20007668209313,0.946524605719405,0.0306700869984119,0.0524601690642221,-0.0127599569765459,-0.00405394339242295,0.455488642368037,0.172387463946216
177,656,0.199573005152714,-0.19893804714565,0.946181671187986,0.0169375817033428,0.0592045686770796,-0.00980847375900201,-0.0527798437947249,0.624002809740736,0.276821938706312
178,657,0.199360009856449,-0.197576738432904,0.945888130590044,0.0103454896656215,0.071919058137132,-0.00593750944432906,-0.0612940415968405,0.653642202075611,0.456448850808803
179,658,0.199068399317661,-0.195917058784482,0.94562804359958,0.00922688626651452,0.0897017557652146,-0.00182585167448566,-0.0177377034941653,0.636579939564245,0.565119580520692
180,659,0.198789869730644,-0.194023112724769,0.945384054227764,0.0105361127935363,0.105275273039664,0.00180914276326838,0.138120907049337,0.423947105998879,0.531704910793718
181,660,0.198552556834398,-0.192078767290967,0.945146020966366,0.00946930408983265,0.112573646180068,0.00449959469268912,0.443670823548008,0.218449488251832,0.347356285931817
182,661,0.198370232692435,-0.190391510178645,0.944938973035147,0.00627579635293788,0.108987462578011,0.00550940384414517,0.61309665789763,0.114340931279374,0.107272290184811
183,662,0.198207929352903,-0.189123677310446,0.944866590338197,0.00200180399297832,0.100361202528964,0.00559986097431711,0.381667991870789,0.0654188261847296,-0.0378881792535027
184,663,0.198060211530935,-0.188206671335474,0.944802647379802,0.00030046128230271,0.0921515770300439,0.00352430095896323,0.084855153706088,-0.108240869852961,-0.15346449176819
185,664,0.197908614630102,-0.187587176485597,0.94473861373488,0.000254727093966275,0.0864972164258118,0.00116644183816309,-0.111685931331105,-0.207506027651782,-0.138757013788554
186,665,0.1977463196024,-0.187070431278915,0.94474858727169,0.000392307924713354,0.0826252012538819,0.000397564618971007,-0.200412906508059,-0.297015483923341,-0.0111849068163841
187,666,0.197532327826739,-0.186523410669366,0.944794609460732,-0.000645577304755277,0.0806213757666083,0.000796852221033507,-0.119217945525915,-0.440968831895904,0.0777536449738665
188,667,0.197270084389049,-0.185832318761628,0.944867418619218,-0.00320942584337211,0.0817460651141265,0.00210965116356109,0.0586953996989234,-0.505007513825796,0.136317306382788
189,668,0.196953601385201,-0.184936404189614,0.944968150044641,-0.00825318791872645,0.0852349465843694,0.00456959580132131,0.185876303977532,-0.506921019134642,0.202714993386923
190,669,0.196613767286579,-0.183803482696591,0.945091995975269,-0.0141423998908049,0.0905297715381031,0.00667043552110822,0.337638013704179,-0.45118500720957,0.162075157274258
191,670,0.196215833113083,-0.18249331595749,0.945259729283284,-0.0185172936065334,0.0966138441504088,0.00825153447107437,0.383616109287897,-0.44791985569063,0.102837160751212
192,671,0.195839753707858,-0.181056371082002,0.945451108380264,-0.0197552655448323,0.102746630701597,0.00762440541934679,0.34723287293322,-0.421102997087365,-0.0642226863336881
193,672,0.195529178676858,-0.179341255768551,0.945672174729684,-0.0189616164229451,0.111605545442782,0.00732858175218336,0.289440603505217,-0.305414710403056,-0.0796462683412201
194,673,0.195263632595025,-0.177647343058675,0.945906687044649,-0.0187548693139882,0.119233678009593,0.00831591221756694,0.227540561676485,-0.0334977778705598,-0.0851197993270497
195,674,0.194994501687637,-0.175729487972016,0.946223715280436,-0.0205429629691094,0.128074462877282,0.00964488762619225,0.112852964026335,0.397751729572773,-0.194825767181851
196,675,0.194662638201643,-0.173872414599483,0.946631195738187,-0.0242255164897664,0.134584219193334,0.0113748198892063,-0.0331113398815485,0.582112501111161,-0.260306115093046
197,676,0.194199012183767,-0.172182611009157,0.947137201607927,-0.0311791828235503,0.134751468914054,0.0143972070766529,-0.111670670556722,0.649198983738888,-0.266835819492085
198,677,0.193627724804664,-0.170961033662345,0.947678798327801,-0.0397679730907856,0.124983814046901,0.0174010341927089,-0.184101675328902,0.576778351911462,-0.292938386049167
199,678,0.19313573952841,-0.171045864586099,0.948194960767101,-0.0449525161806831,0.0941769864185517,0.0195006584702826,-0.173410835719376,0.436608390888001,-0.294237597500953
200,679,0.19293461235674,-0.172890792774106,0.94862386926833,-0.0426544669562611,0.0421122478317883,0.0203556161341782,-0.119470771539502,0.166951089733119,-0.256664995716205
201,680,0.193085191710938,-0.175934346404369,0.948916666890009,-0.0309817126528836,-0.0181129132892553,0.0189047161120616,0.000450365238235169,-0.254966286119399,-0.249455380869256
202,681,0.193504720148424,-0.179371687043603,0.949082801739641,-0.0144052056391362,-0.0725698609773442,0.0175775061164459,0.223499342571278,-0.483778930632378,-0.104556962087714
203,682,0.194084737441421,-0.182670047482805,0.949181271057861,0.00203682633369943,-0.115146107368094,0.0173084360881923,0.316308164324011,-0.551490328348492,0.0470085246319872
204,683,0.194733532671818,-0.185568961322682,0.949262400141645,0.0150649500408469,-0.144610730859211,0.0182005750540553,0.400202836565809,-0.499155953030575,0.134058787981784
205,684,0.195373077221304,-0.187988614764049,0.949354381163607,0.0234460801620883,-0.164020370202761,0.019801966031905,0.445155078750107,-0.611869281224064,0.167524990035964
206,685,0.195954178832142,-0.189944624039405,0.94946538459156,0.0276814118752358,-0.175386665762913,0.0216385571922611,0.422440561023803,-0.666542339025152,0.188245705860237
207,686,0.196426469029241,-0.191524525090536,0.949599593872874,0.0272429254760885,-0.182122934745662,0.0241501554231869,0.280235361019689,-0.586526380740394,0.223127330360299
208,687,0.196809108197314,-0.192749529917304,0.949753798687031,0.0254462391121677,-0.181042418285762,0.0260832954569174,0.159157254579798,-0.639973806944349,0.205008128014909
209,688,0.197127221500569,-0.193643291275072,0.949924940859842,0.0250271429113597,-0.172899624557625,0.0277045466250263,0.0145259195412517,-0.675859503763774,0.227947779705297
210,689,0.197421888656302,-0.194171354788414,0.950108408376471,0.0259400072635903,-0.158304165487315,0.0293174364285406,-0.0573879143630994,-0.683427291694477,0.263858481974602
211,690,0.197657994767498,-0.194428350375179,0.950303797465848,0.0269436823588523,-0.140035619525502,0.031993576089729,-0.016187524973662,-0.599695740029922,0.370013441082422
212,691,0.197847683793501,-0.194449049937384,0.950514922206272,0.0262461462190591,-0.121367289840274,0.0349068612278597,0.0607101134476567,-0.438320859828088,0.378880843885027
213,692,0.198061728955254,-0.194217988150129,0.950711482146461,0.0253226986054605,-0.103480984759203,0.0366256269448096,0.0632697208558416,-0.367981844929956,0.301235419348439
214,693,0.198231172585982,-0.193893601804316,0.950918435129504,0.0249676862211856,-0.0847580708080353,0.0361564601137903,-0.0414942988374542,-0.399733504430353,0.11869304107901
215,694,0.198416107794,-0.193488581606047,0.951089898253215,0.0263070134047511,-0.0677547659139593,0.0327614567544334,-0.01393439893534,-0.363934322414445,-0.0769061520220732
216,695,0.198647143669952,-0.193020549415595,0.951215461593655,0.0281367246169809,-0.0512517735762189,0.0273628780953339,-0.000279300851118008,-0.473341801851995,-0.275077332040656
217,696,0.198895964483999,-0.192549481492992,0.951293491443633,0.0287355579220867,-0.0384651209088354,0.0218630930375272,0.0215190100958546,-0.456126762406092,-0.357478462485987
218,697,0.199151782302238,-0.192120631592187,0.951327771816197,0.0288722649052588,-0.0285973036115539,0.0159096930008303,0.0235417812175453,-0.460745270640687,-0.432709840782452
219,698,0.199401155359357,-0.191759698706443,0.951321709254973,0.0284718484165391,-0.0230366179179724,0.00994790424973886,0.0357171227210036,-0.448263303286248,-0.481532342272039
220,699,0.19961836856963,-0.1914963201665,0.951282743877719,0.025705098726961,-0.0220712123675734,0.00553759001463313,0.069535578712125,-0.407541342497138,-0.409895057402343
221,700,0.199803319385507,-0.191347174532938,0.951216738245188,0.0224887826739847,-0.0230439972659553,0.001433285385532,0.0740795810029105,-0.401964306126308,-0.391713637104994
222,701,0.199950265215248,-0.191318506527294,0.951127537679559,0.019369159744704,-0.0259268654523272,-0.00199566309901502,0.144657922493628,-0.359632189794078,-0.3434924443822
223,702,0.200063976893738,-0.191418260077377,0.951010036167116,0.0169094874345239,-0.0300098427745734,-0.00618330929472825,0.114264098270561,-0.375604745742979,-0.38826577765997
224,703,0.200155599868472,-0.191637720089955,0.950857278014202,0.016668353724679,-0.0345669492557132,-0.0112795585657955,0.117136385510804,-0.401006317474392,-0.437303285740091
225,704,0.200251967341753,-0.19197734363457,0.950668238221713,0.0170099846341541,-0.0403259695135995,-0.0160596313532543,0.138502493729268,-0.470067626944616,-0.414807544119813
226,705,0.200361667641601,-0.192432637090419,0.950444756143507,0.0180269821225813,-0.0473566207042715,-0.0209803030658604,0.141716441718133,-0.431182733606968,-0.436950577526283
227,706,0.200490050239154,-0.193124149509385,0.949809578714777,0.0177101846708343,-0.0558565718516583,-0.0249639222678622,0.136276432934665,-0.408838540018811,-0.440902272832053
228,707,0.200740136466775,-0.193753565930781,0.949624247018141,0.0205330240396645,-0.0610233202670586,-0.02850182536004,0.257029689642405,-0.411392363194105,-0.29711225919486
229,708,0.200936848281743,-0.194492124131131,0.949353933765421,0.0213957966077873,-0.0700649245654012,-0.0363652473805012,-0.109474455266935,-0.495694286582027,-0.598739626906256
230,709,0.201120129220151,-0.195272952764445,0.948977869535379,0.0221682298714643,-0.079786280792989,-0.044910729669116,-0.157602028798283,-0.532379154364572,-0.678335087411168
231,710,0.201259935054317,-0.196113260752223,0.948563453276537,0.0246821968344243,-0.0854913136761522,-0.0484570560152754,0.301404555462302,-0.204296321167441,-0.365945260234966
232,711,0.201397143611298,-0.196962723044051,0.948157888618275,0.0235289974411661,-0.0913489006909135,-0.0519818165706031,0.069168577624528,-0.259672906317253,-0.462215319685122
233,712,0.201544345290096,-0.197827224786476,0.947691842758159,0.0203964274317479,-0.0991870697846377,-0.0540341676919352,0.0815466572048187,-0.116343227158586,-0.383156343992432
234,713,0.201577181728285,-0.198686248759693,0.947253230907318,0.018676362112288,-0.100934338162889,-0.0574300861376537,-0.0236755051842794,-0.344511395105017,-0.45144874772248
235,714,0.201612531635601,-0.199688210547066,0.946772750636714,0.0175792051622332,-0.114721012301671,-0.0603042585913119,-0.0826637262447809,0.20658056513462,-0.413499889780246
236,715,0.201322435417759,-0.200541955722302,0.946628559633543,0.0182225163717756,-0.118297658066874,-0.0645969440973681,0.0942304254943947,-0.349191925332314,-0.421603572319424
237,716,0.201437780657947,-0.20162440571206,0.94605676335343,0.0186467417896742,-0.120252670139362,-0.070727347208103,0.048902091164635,-0.329594835928243,-0.444130543832259
238,717,0.201571930422768,-0.202873477586928,0.945374474967385,0.0214467910414897,-0.134854391007441,-0.0781707826118126,-0.139588458166865,0.104663924937864,-0.320757699727907
239,718,0.201721165818817,-0.204220286661594,0.944858169619381,0.0186658768594968,-0.149569715143575,-0.06214020540121,-0.51647917604664,-0.425321111341079,0.795231533221821
240,719,0.201999813686432,-0.205593241678471,0.944417646854371,0.0224024250249799,-0.162771396990754,-0.0644758894538673,-0.247984197307814,-0.831658074885958,-0.979358030836815
241,720,0.202430945710911,-0.206901879473021,0.943833013531552,0.034052901209231,-0.160937530196695,-0.0592300308429168,0.00460407714881554,-0.929394652309547,0.799190272067062
242,721,0.203085618989534,-0.208024868657291,0.943364564559048,0.0519695415636884,-0.148651262414671,-0.0467721437921997,0.410677169473085,-1.3555805039161,1.33142584828241
243,722,0.204076479337334,-0.208869533405817,0.943021127553569,0.0671621768335307,-0.116755441788278,-0.0197230873002881,-0.00995954658375977,-1.15646895038779,2.49568666164739
244,723,0.205111557519584,-0.209161654481447,0.942887745122787,0.0805376304984987,-0.0713528466385194,0.00988160936414574,0.279441704677374,-0.354496736319369,3.01157487595334
245,724,0.206251457678435,-0.208913087078375,0.943040561102601,0.0794138587956826,-0.0372028274865381,0.04028665067396,-0.204502808960387,-1.32657390182308,3.51408248144048
246,725,0.207234134207951,-0.208416881483847,0.943342328464153,0.0729727849410276,-0.000893804005868675,0.0684996729787505,0.67606153653126,1.30105087099598,3.36297782263295
247,726,0.207896268049221,-0.207763994815164,0.943899672124607,0.0496916199101433,0.0296109425109573,0.0943604999991497,-0.245139846130252,3.2952052179855,2.6345362146911
248,727,0.208343227875593,-0.207047684636094,0.944476954706523,0.0317596648961951,0.0426333956467665,0.0982377110353704,-1.36790902726093,3.28765051485083,0.656927389042439
249,728,0.208966139931435,-0.207130886818676,0.944381827040258,0.0263724679922906,0.019395617677891,0.0746276192947454,-1.90626522620597,0.333706419982405,-1.66731179852009
250,729,0.208626705813496,-0.206574847374835,0.944522800209382,-0.00674671301235065,0.0134631825670401,0.0485191422632847,-2.88110333284679,0.263726098647909,-1.39857153998277
251,730,0.208689791915003,-0.206839826776263,0.944493640402031,-0.00952629262557546,-0.0409654594194247,0.00957814604781213,-1.75892316772404,-1.64491515202525,-2.03059461443249
252,731,0.209018505183885,-0.208006801394095,0.944180830252118,-0.0114486052028467,-0.0857021841201618,-0.0212250064839733,-0.641769715798527,-1.85109555068261,-2.13784255792342
253,732,0.209405587977481,-0.209478023193453,0.943811413384755,-0.00139448061579052,-0.122389361120386,-0.0326620235467148,0.7265493232337,-1.24355765692448,-1.12633483758337
254,733,0.209936853990257,-0.21101482089523,0.943470155015987,0.0160040891223983,-0.150206017361075,-0.0381254761324586,0.999764415180964,-0.804862064120642,-0.847104865037895
255,734,0.210354642594864,-0.212790834745954,0.943281613581047,0.0332239033791768,-0.168341279070582,-0.0357674563343519,1.54172396729341,-0.0278250594472124,-0.32353274280561
256,735,0.21245357963246,-0.212658164166726,0.943062474529988,0.0711925099208561,-0.138780814284688,-0.0358433682578434,1.26470091530989,-0.0771052711314801,-0.252176778091846
257,736,0.213390632033161,-0.213734832331295,0.942957090744828,0.0961407101527939,-0.106367814697276,-0.0380659975294262,0.703385958954625,-0.651700623810793,-0.429484543763785
258,737,0.215245383341506,-0.21392525613508,0.942902179622744,0.125891298745296,-0.068572656929727,-0.0387695976317631,0.640359877558763,-0.818339188453247,-0.449579574466169
259,738,0.216994451408505,-0.214416210569054,0.942865985554257,0.139649245904406,-0.0496296366218824,-0.0391088096881734,0.224454260258749,0.0336808152842702,-0.528696530872813
260,739,0.218569008302268,-0.21419397229354,0.943499419581342,0.135264209028731,-0.0497535260479316,-0.0377456597990273,0.194546573408181,0.962421502057133,-0.363993662820421
261,740,0.219812077667588,-0.215170839282379,0.943365777706947,0.128103379247594,-0.055285561981406,-0.0425397275875851,-0.392496506461585,-0.0511809757844355,-0.847231685439629
262,741,0.220405263280007,-0.215856862411858,0.943370722420177,0.104157146167002,-0.0526227395978193,-0.0292311495497499,0.585768787463937,0.948195111059461,0.132579027035607
263,742,0.220445233971714,-0.217277038819303,0.943328929445756,0.0647597376645823,-0.0637472276309528,-0.0168117833161162,-1.04135995552561,-0.35051986999688,0.409472031298524
264,743,0.21990078137797,-0.218501281779586,0.943642205028993,0.0458559773843762,-0.0494789419998883,-0.0115465203438768,-0.398595141859619,0.751452591172728,0.350928644667697
265,744,0.220040985756381,-0.218980676954738,0.943728041549388,0.0357848659862774,-0.0360491378438804,-0.00571365994074883,-0.58622610836325,1.34378722140629,0.363710912456616
266,745,0.220019381015792,-0.219154475612722,0.943793947696673,0.019276973724064,-0.0295120234368533,0.00680480340103158,-0.147513504195879,0.997183590037581,0.769715721381072
267,746,0.219796673845293,-0.219851349604697,0.943867694667552,-0.00243619677453461,-0.037194633043426,0.0197140011720329,-0.0904362061916731,1.60069043978417,0.96839272550761
268,747,0.219355611712322,-0.220198181075856,0.944155687881845,-0.0192160560254474,-0.0421228411992969,0.0283328820348105,-0.608974565930682,1.46097523352554,0.757937206985557
269,748,0.218847494254728,-0.220841178966028,0.944363298872709,-0.0230867312298439,-0.0481280833335181,0.031356598220651,-0.419824667749288,0.962832986916627,0.373328272063236
270,749,0.218476470006065,-0.221197517832808,0.944623374005657,-0.0291905905944072,-0.0394468492267969,0.0320402428156825,-0.547545322593229,0.863289097150739,0.259548243729104
271,750,0.218267137166271,-0.221677944266573,0.944857463314538,-0.0228859188669338,-0.04145437241162,0.0275049875233019,-0.667425071044575,0.347155908895299,0.00567462091933303
272,751,0.218203829937272,-0.222216389502547,0.945010483397671,-0.0140142641771713,-0.041166557044351,0.0216758291818251,-0.535715768069569,0.235346864754394,-0.0527683998947975
273,752,0.218409262085939,-0.222760292235693,0.945073356086606,-0.0103075336866634,-0.0483817244810766,0.021104488021163,-0.130588824213077,0.447163756569011,0.16802351306893
274,753,0.218578688352466,-0.223214766033031,0.945201093664368,-0.00876840744093828,-0.0457566528595773,0.0222474408922762,0.00925675815038604,0.0715281749080361,0.161900919123902
275,754,0.218814146400695,-0.223463910242849,0.945405895173899,-0.00139850268090564,-0.0434092684567467,0.0229233626000335,0.0533285679284488,-0.059610699937595,0.214172754755547
276,755,0.219168749825277,-0.22374735408392,0.945589901823309,0.00592136340289689,-0.0444119777329075,0.0221115844846506,-0.0167290854179318,0.204740216459254,0.166353631670932
277,756,0.219649684541016,-0.2237497787578,0.945742248892053,0.0190554195831694,-0.0314665411501996,0.0184897187864823,0.181262017145447,0.13440447420987,-0.0182784798729477
278,757,0.220183728225289,-0.223541357880759,0.94585114043422,0.0271909956182748,-0.0167956585189519,0.0144521469270468,-0.142270610329198,-0.208983663411394,-0.109492487231931
279,758,0.22070851082783,-0.22318769022203,0.945936446726858,0.0339402827068548,-0.00106646412225029,0.0116147593504821,0.0835184105655906,-0.0449487855361966,-0.0785279729242369
280,759,0.221228428478484,-0.222711831484948,0.946000945031371,0.036446872245388,0.0101522462659132,0.00966138901074469,0.00605070101847657,-0.121722843129056,-0.0334772387491576
281,760,0.221723053876929,-0.222129151796029,0.946045471346631,0.0364464441027947,0.0213009550994545,0.00846682805664544,-0.123890744265584,-0.156851742032177,0.0395485624931915
282,761,0.222174579616234,-0.221434991954287,0.946067493481083,0.0358919381322856,0.0332703818852514,0.00648777189700452,-0.19782046048906,-0.0828322941963401,0.0148392235934644
283,762,0.222569915091032,-0.220652423637723,0.946072044572766,0.0346703197699792,0.0443178064670227,0.00530951670591741,-0.256517650189218,0.106680994224127,0.107736279001352
284,763,0.222908231332239,-0.219816935513422,0.946069356041637,0.032323875191515,0.0536566662708818,0.00489424493386423,-0.27113516713557,0.285665031228176,0.196727897313742
285,764,0.223206053587234,-0.218940155560059,0.946064017426591,0.0304604967222703,0.0623622263536749,0.00475703093966949,-0.283063637194442,0.382122649724485,0.257597975891914
286,765,0.223483502943258,-0.218018550070095,0.946054620970409,0.0293099895667611,0.0725664001647098,0.00390275185124851,-0.332586046051047,0.436206426402368,0.2286866446023
287,766,0.223751850986278,-0.217059906014996,0.946039170178028,0.0294831383925592,0.0823712265098232,0.00257543841807176,-0.317972391474209,0.31137084967744,0.185170768506823
288,767,0.224054357343263,-0.216099012388691,0.946015619237771,0.0309267339415553,0.0915690350201222,0.000663595583189761,-0.259292989930518,0.184409634920441,0.12396501967057
289,768,0.224414713411692,-0.215174918826039,0.94598461033581,0.0329274111010661,0.0978720426012946,-0.00117694327307968,-0.282006079361561,0.144303654498516,0.0960899940728767
290,769,0.224834791916658,-0.214325241608306,0.945946840590229,0.035521689396307,0.100176767401972,-0.00338937466577778,-0.216594427644805,-0.0157991147145672,0.0285624099493163
291,770,0.225308601566352,-0.213560169423035,0.945896450786899,0.0382758167449802,0.0998659983439363,-0.00660932409263986,-0.233586917415869,-0.104212428677258,-0.0857834528611967
292,771,0.225833554556598,-0.212881206560133,0.945830796431949,0.0424771386544657,0.0978045384752748,-0.0102378363412129,-0.167751860723378,-0.14114702166581,-0.161789293990861
293,772,0.22638668819521,-0.212294432819293,0.945751418206909,0.0470650981049409,0.0925132979322296,-0.0140645266287738,-0.119557190994231,-0.0784027295980319,-0.223064339165352
294,773,0.226927322345874,-0.21180354775229,0.94566441991361,0.049271115216675,0.0840387575250737,-0.0172501809127138,-0.087791325638464,-0.105079072910318,-0.228217066720508
295,774,0.227415313507025,-0.211417895834409,0.945580603778356,0.0491173302355474,0.0733686098599011,-0.0192981835845187,-0.00367942833922697,0.0427068921042662,-0.192774127212831
296,775,0.227829496352512,-0.211091229860734,0.945506826350492,0.0476204557764572,0.0638573520254819,-0.0211223075772276,-0.0203504506093626,0.0787310147695844,-0.213437427135694
297,776,0.228175945662223,-0.210793491394399,0.945441378195421,0.0465888170252755,0.0568720933428061,-0.023424047102751,0.013462460605524,0.0957075556027758,-0.279019534738551
298,777,0.228489764665779,-0.210471919782557,0.94538237678876,0.0448918046684742,0.0515574330725257,-0.0257852766361136,-0.0243772459989259,0.0746311247264656,-0.332765097985671
299,778,0.228715689025111,-0.21021766662087,0.945338546716826,0.0419184193636118,0.0463058858539778,-0.0276827827849467,-0.00503150118327486,0.109215076170568,-0.340786127041888
300,779,0.228873482413809,-0.209997593108399,0.945308498218212,0.0371734042810996,0.0416851432907829,-0.0297029583322199,0.00615642125358557,0.0321185977689975,-0.408637975121311
301,780,0.228969506356769,-0.20985019607002,0.945293289174611,0.0317729163813274,0.0363427747592327,-0.0312464203000777,-0.00995392462596777,0.0600633203222296,-0.419583227726709
302,781,0.228995177869601,-0.209804351021436,0.94530986163152,0.0259064726947579,0.0300594756311043,-0.0317128252367641,0.0669620876712583,0.0928596450889229,-0.383042129532015
303,782,0.228988152725111,-0.209852407377668,0.945340339609141,0.0200020340500612,0.0228855298394701,-0.0319196542430729,0.0203675513430947,0.0817266361546033,-0.399865518701782
304,783,0.228948495621717,-0.209986473832376,0.945400261229972,0.0142797975117128,0.0160889244024433,-0.0312787075049223,0.061390384330215,0.0953925146485121,-0.370786666461646
305,784,0.228900311757157,-0.21020284327602,0.945491436415596,0.00972935937193485,0.00932301503827258,-0.0301357297108952,0.0717013511323081,0.100181920493863,-0.355233373758898
306,785,0.228846472163592,-0.210491761444567,0.945619185552101,0.00531619334257402,0.00330725053778238,-0.027499752252609,0.0438746810679444,0.168300499553524,-0.26578744438927
307,786,0.228782038605661,-0.210847663006121,0.945787574586922,0.00174101776091965,-0.00224833330209846,-0.0241167795785114,0.0518441515583758,0.205214321016751,-0.220000376591211
308,787,0.228707958867321,-0.211261039350737,0.945993317586531,-0.000679763882772327,-0.00739543796776536,-0.0203182655418332,0.0277162535418743,0.199512189950123,-0.186093414090421
309,788,0.228604873980835,-0.211737728198078,0.946234947897966,-0.00334633079047874,-0.013002059059949,-0.0158197634469597,0.0300400882246605,0.202721561045611,-0.131220611855441
310,789,0.228458540209102,-0.212279524458545,0.946507506508845,-0.00600686489026256,-0.0192546724588711,-0.0110922551063556,0.00522416003153265,0.182947686852626,-0.0949128495327415
311,790,0.228251893551193,-0.212895403777226,0.946800491955542,-0.00859523767826928,-0.0257614574145024,-0.00698666051079355,0.0324899641576238,0.153084990373266,-0.121453459741951
312,791,0.22797191196452,-0.213594021523196,0.947104141475682,-0.0125250393800777,-0.0339908594796012,-0.00271718375197457,0.0311118980100048,0.173037628322257,-0.0854645355582585
313,792,0.227610262259553,-0.214345725109882,0.947410286407829,-0.0165660821863352,-0.0407764724094433,0.00132133445117232,0.082032355607739,0.145181172106911,-0.0630402533217225
314,793,0.22716032990574,-0.215123649491247,0.947709280960018,-0.020979626859624,-0.0463444063939825,0.00443193555080612,0.0688129376931434,0.15121583854994,-0.0924680197578354
315,794,0.226630501381094,-0.215901456221742,0.94799218230438,-0.0251358745551112,-0.0511586936211209,0.0072919025398562,0.107257412130681,0.0531636626065682,-0.0707983656968263
316,795,0.226021506369014,-0.216661646061237,0.948252470994378,-0.0298059676558059,-0.0547246921719194,0.00962548231429133,0.136828044497244,0.0645162324668219,-0.0708286532895198
317,796,0.225340498710081,-0.217381296176492,0.948481583372831,-0.035289286895899,-0.0578506877062992,0.0114713317363293,0.138339963899172,0.0300054816956457,-0.0612003409956967
318,797,0.224629701419922,-0.218008431385203,0.94866976359981,-0.0409746964139304,-0.0578984206971441,0.0130658174272215,0.0864081631869309,-0.0539820955583619,-0.0162734634624445
319,798,0.223863835461891,-0.218598690251623,0.948819114027472,-0.0459441045907388,-0.0568200713465538,0.0137679372803028,0.0795136454764875,0.0165588166692847,-0.0310521712369294
320,799,0.223078926921336,-0.219128065171094,0.948924870000835,-0.0518881767228276,-0.0558064777042517,0.0143857838008916,0.0548521313655925,0.061013672923515,-0.0048262896771704
321,800,0.22228305088287,-0.219597420860274,0.948990057580984,-0.0579372415258973,-0.053490852063024,0.0151175910085591,0.0850177247165634,0.126114110729949,0.0338366496314
322,801,0.221500203172202,-0.22001122520097,0.949013684841096,-0.0632684351791399,-0.0502860000695797,0.0148723621295086,0.0165890080917628,0.154923023822279,-0.000808613258611366
323,802,0.220738876057793,-0.220378018249886,0.948995793219817,-0.0676919040597551,-0.0466581780645768,0.0139976387901035,-0.0109720132771366,0.150224417419617,-0.0251182810048307
324,803,0.220020702797438,-0.220682104652933,0.948935936428988,-0.0704128061088879,-0.0423431917128481,0.0121417648830593,-0.0751618720853325,0.108209857902467,-0.0724873989002694
325,804,0.219342436375217,-0.220910541828586,0.94884011373691,-0.0720405826934192,-0.0375719575492149,0.00993281557526724,-0.0930797642682682,0.126684428920403,-0.0981592780663081
326,805,0.218721421276186,-0.22100180841194,0.948716248680736,-0.0716197472189421,-0.0309317722899116,0.00727068557128315,-0.134966209655364,0.119421555796082,-0.13260354522038
327,806,0.218152983305185,-0.220897003441451,0.948581263847859,-0.0699183601144054,-0.0227220701449241,0.00522203281231304,-0.0592085277013081,0.121480902290275,-0.124487527965778
328,807,0.21763649412103,-0.220535301500245,0.948459352744995,-0.066224996632602,-0.0101959897939625,0.00397533709041634,0.0422006117809835,0.22929576482709,-0.106957538103435
329,808,0.2171687843461,-0.21986869505493,0.94836970487421,-0.0614770358991957,0.0054757171595696,0.0036190522986514,0.135246133977995,0.244681079274685,-0.0949140429069441
330,809,0.21674914195756,-0.218960329324161,0.948421200452127,-0.0561406622231463,0.0217536829441454,0.00772264117390665,0.0918945397880229,0.168883261373329,0.177273289246054
331,810,0.216300340299546,-0.217875491100198,0.948747141833342,-0.0561147742153743,0.0391186470235445,0.0161012454963639,-0.522287838144354,0.00552419817980441,0.338759604711144
332,811,0.21586588688105,-0.217069178563705,0.948927249197309,-0.0552766766547174,0.0453738766713931,0.0158276037220116,-0.245491940553354,0.0340288132099822,-0.199699079850374
333,812,0.215641795248419,-0.216939939281046,0.948848431362629,-0.0504919375723641,0.0335613921962197,0.0295852976942017,0.127868498289208,0.246805498037464,1.38957914664625
334,813,0.215631669839669,-0.217269975386863,0.948853598761949,-0.0420884044984054,0.0169522965286683,0.0385063959869906,0.164135383395268,0.207258318107257,0.956236086976506
335,814,0.21574977053351,-0.217735727524294,0.948790249766463,-0.0304418867298119,0.00300594039431741,0.0419502510829711,0.191401305909519,0.265495508017768,0.682688231261937
336,815,0.215950589786147,-0.218119434873448,0.9486297213249,-0.018521697093676,-0.00534042450644071,0.0413098818210757,0.00619009022062863,0.0699864603439544,0.563812430470201
337,816,0.215944839312695,-0.217990535167022,0.948219421079663,-0.0119532431039271,0.000869673965450955,0.0329254919056009,-0.0989885088091421,-0.00270998906783,0.207988499474502
338,817,0.216259865695809,-0.21795246896821,0.948023956720889,-0.00164428425482139,0.00581169657461152,0.0271311548800483,-0.292316529718086,-0.280059729780828,0.130204836832186
339,818,0.216100885890526,-0.218282981781494,0.947471364330232,-0.00296802757866228,0.00734570559288753,0.0238615003618083,-0.17009671353758,-0.168043038171286,0.25462229526279
340,819,0.216431144387296,-0.21790152649006,0.947117275318423,-0.000175207708979839,0.00791131968180126,0.0229400405303051,-0.0526204244734543,-0.24047845936719,0.442407361902347
341,820,0.216636571833522,-0.217566609868668,0.946568149156794,-0.000544678531660378,0.00922738282046749,0.0235484368405006,0.260644215406365,0.174712867038082,0.346952137081402
342,821,0.216741758103994,-0.217067235230063,0.946217948923457,0.00371335289858493,0.012646079271075,0.0213874477773506,0.20187158305313,-0.138559653250843,0.119241650288277
343,822,0.21682119173398,-0.216536290126552,0.945937084444285,0.00708978675433116,0.019859197909435,0.0151403142036658,0.279403021261009,-0.0267375353704328,-0.0217681893332001
344,823,0.216854299494414,-0.215816227710237,0.945630948728143,0.0107681883169451,0.0391901636809902,0.0031711546389548,0.0774303031047162,0.0108057174691802,-0.334815221700321
345,824,0.216820184073706,-0.214959655879248,0.945315703351108,0.00992683157712632,0.0571475707659464,-0.00606406459604483,0.0624681396845671,-0.00929507248844,-0.373674566770653
346,825,0.216734627410979,-0.214031933055398,0.945015818570229,0.00566455359548953,0.0697486393754657,-0.0117420677551725,0.0523256626834146,-0.0460512107752008,-0.33593240308292
347,826,0.216616859806127,-0.213118727030181,0.94474436693109,-0.00108289665844543,0.0754350468400426,-0.0142466956017012,0.102723792667163,-0.010730961092624,-0.266778456140351
348,827,0.216504674236775,-0.212278654441429,0.944502836904926,-0.00831201845402235,0.0754733278200466,-0.0142091760401159,0.113733527675871,0.0441102922870553,-0.158070745516674
349,828,0.216373284279728,-0.211503587075139,0.944308764346766,-0.0152944867045596,0.0735739599194688,-0.0116528783686128,0.0795590881942399,0.273391028482734,-0.00270174096976036
350,829,0.216235317609975,-0.210733211862867,0.944230949245396,-0.0184728484335024,0.0730688391772117,-0.0081261728385566,0.0584095922348336,0.342767924339055,0.11249483165878
351,830,0.216101506800891,-0.209925992469317,0.944224242709625,-0.0175786307264727,0.0736434507638816,-0.00487179304266728,0.0199811694851368,0.389984334805046,0.144370045640957
352,831,0.215970034732257,-0.209059528079662,0.944264857547138,-0.0146332728365067,0.0745782680190694,-0.0014802876192515,0.161230656851583,0.274978271538222,0.178697442395041
353,832,0.215832332727173,-0.208190489351685,0.944340115225877,-0.0127868898983533,0.0734508614830932,0.00148780427775259,0.219030836456569,0.209877891415359,0.138700434375211
354,833,0.215661942028046,-0.207356874394115,0.944436112301369,-0.0131497702646008,0.0714897022187056,0.00359522796786737,0.137195392509235,0.114477728111771,0.0932494291484083
355,834,0.215448871418011,-0.206593415440539,0.944542222287305,-0.0137533890659857,0.0694542148329823,0.00476164901898013,0.192884384883044,-0.0711481479291031,0.0485608444805897
356,835,0.215215800610272,-0.205951851869634,0.944659313042559,-0.013065033914439,0.0658215618221241,0.00534193800400805,0.23582831779092,-0.229308704109782,0.0156153637951997
357,836,0.215015120912281,-0.205377516157116,0.944782040191498,-0.0108695104687211,0.0635844584165132,0.00536815942379055,0.239526646697943,-0.311148284434844,0.002044486002749
358,837,0.214838857201919,-0.204862736564768,0.944909117077978,-0.00795980366304179,0.0609622088717114,0.00517923359626811,0.213215956096944,-0.287318507197839,-0.00522202941726116
359,838,0.214734718419274,-0.204331417761906,0.945031591048913,-0.00496423902574395,0.0613116777446613,0.00503066793309788,0.311733738029793,-0.259888604703226,-4.92062151822402e-05
360,839,0.214633098560781,-0.203758502972278,0.945161649682596,-0.0017145266042983,0.0605298862951999,0.00473913081393943,0.287808811628476,-0.150196597031901,-0.0185269332945301
361,840,0.214548460671592,-0.203093979996434,0.945292078715368,0.000991549919270839,0.060221544709493,0.00425411332995523,0.302619737989565,-0.0899877659430349,-0.0460793398335676
362,841,0.214446451130547,-0.202317529409833,0.945424474370346,0.00095574102689354,0.0611095460287849,0.00426225380951162,0.229755513934913,-0.00427356139460013,-0.0329428499341399
363,842,0.214325922162253,-0.201414391155595,0.945558052379321,0.000605333589163838,0.0640152912039889,0.00399053556375706,0.19224765956538,-0.019863539471218,-0.0482115355896092
364,843,0.214051217806975,-0.200010086314197,0.945802038427233,-0.000169440332820139,0.0688677311875574,0.00376527284738562,0.0625674267324858,-0.0373308249971414,-0.018925817773044
365,844,0.213795918749233,-0.198826971315642,0.945877384945606,-0.00318855380118678,0.0762612287847073,0.00439725190826171,0.0141341040249315,0.0773140122409882,0.0230369247823868
366,845,0.21359330870334,-0.197537356681597,0.946026975057645,-0.00746157612142886,0.088836053577391,0.0063889597924547,0.0457054845899145,0.120049883455489,0.096904654321105
367,846,0.213269840705054,-0.196161913649972,0.946222043573842,-0.0167958680228355,0.101927757319407,0.00961511671652629,-0.185011765404165,0.0463239920236765,0.138353846724058
368,847,0.212818409365336,-0.194710894898045,0.946475492394338,-0.0282051345865549,0.112663865260727,0.0144835347171388,-0.136223209427227,0.0931774892549828,0.262540499125383
369,848,0.212281426956172,-0.193117878440378,0.946797108589512,-0.03685680961513,0.125035365642487,0.0191813346124991,-0.0851400460221912,0.145559908058106,0.246572345052808
370,849,0.211650809624955,-0.191327044591944,0.947207255420146,-0.0432819730815582,0.135071269352423,0.0236174097052347,-0.0149348842200491,0.24753976915032,0.203704551628855
371,850,0.211029944929477,-0.18952381297272,0.947636116056716,-0.0476109962138717,0.144726973662774,0.0277492960321236,-0.166819000724124,0.340430850809495,0.144406844169921
372,851,0.210511066072936,-0.187824122798372,0.948098534847409,-0.050641084211528,0.153807854211882,0.0326323397630764,0.120766634336677,0.606430311292862,0.0233786519971923
373,852,0.210003103248817,-0.186032330320362,0.948598556405126,-0.0538987892699734,0.161004585004752,0.0361771301833653,-0.172333311077403,0.454438255760661,-0.169687343717476
374,853,0.209403869569539,-0.184293753286457,0.949109222090796,-0.058380417235477,0.162618420448547,0.0381300219296364,-0.115180760033225,0.475065274771521,-0.340413152257052
375,854,0.208743906879493,-0.182742169974059,0.949538002504684,-0.0624005673507448,0.157050055858123,0.0360800860776232,-0.0386684998769446,0.367057344891966,-0.476334690045083
376,855,0.207974255827957,-0.181444742576938,0.94991469939433,-0.0670665774387326,0.146333961261431,0.0326916593557161,-0.0774704694076384,0.237772353961312,-0.573665985994699
377,856,0.207160414764938,-0.180635167276541,0.950221545466016,-0.0713684032059441,0.126731951150489,0.0291269264526795,0.0310348225586042,0.0736639962123788,-0.522394289816275
378,857,0.206688244933131,-0.181163970777126,0.950484488133255,-0.066233827746378,0.0846211759664887,0.0267397684532721,0.267376205484108,-0.177916919461915,-0.373508299751795
379,858,0.206867335699628,-0.183413299345777,0.950707153358485,-0.0507477061198428,0.0217583926622115,0.025790544766075,0.34293613636471,-0.231070442080054,-0.199862959350528
380,859,0.207499995495485,-0.186745977533814,0.950874570740553,-0.0290698614994344,-0.044868500516335,0.0255661400464484,0.447718168922157,-0.240290553172589,-0.049298002536773
381,860,0.208348120216247,-0.190342001974111,0.950966121183619,-0.00643499396795399,-0.102196564280207,0.0256841256707781,0.483001070708645,-0.412709489733619,0.110263341677701
382,861,0.209215315173533,-0.193713005825732,0.951009454692178,0.0111688777758475,-0.144834549478271,0.0266934599619367,0.4373552348487,-0.493937240404338,0.262332377025997
383,862,0.210007277307538,-0.196635351714787,0.951036123031651,0.0223152172904483,-0.171079629557318,0.0278210695822494,0.259102251983891,-0.415252443637101,0.300132640613377
384,863,0.210674943204197,-0.199010688677841,0.951060849950176,0.028697405596066,-0.182776780021861,0.0282658748380524,0.0908517222452379,-0.327032211796544,0.265840189633886
385,864,0.211216562810779,-0.20083436226698,0.951094290497406,0.0320885250397068,-0.183752420076163,0.0285414422865023,0.0414136350862527,-0.335393020456025,0.252430551284699
386,865,0.211622963934758,-0.202169351475706,0.951142415755494,0.0323963119893497,-0.178410002321786,0.0292152770860455,0.0771669803537803,-0.334766204183184,0.261368944508195
387,866,0.211907412808142,-0.203077676336806,0.951208423815543,0.0307809771365686,-0.167786735084056,0.030275507461516,0.0491524419840673,-0.37574362970234,0.289560111045684
388,867,0.212069085409921,-0.20362928564676,0.951295662355137,0.0270744689159194,-0.153274537269661,0.0316596037549641,0.0211540372416169,-0.354658464211775,0.301091263398706
389,868,0.212110470343975,-0.203852849748885,0.951403420006852,0.0222006597138001,-0.13461878786218,0.0328945091543734,0.0358992817857824,-0.350732810399037,0.289737529114963
390,869,0.212058269500797,-0.203811689324397,0.951522965484049,0.0183084980360241,-0.113376167637454,0.0327287497317114,0.0146248289760426,-0.357536799081753,0.194519364013583
391,870,0.211940399551063,-0.203553396579847,0.951644262659626,0.0153979502513844,-0.0921303005227221,0.0318003855124431,0.0273588907607855,-0.351728805440907,0.129729839780358
392,871,0.211783691049225,-0.203135552336111,0.951759019411136,0.0132730715380048,-0.0722796938390745,0.0300356198576969,0.0377924871339061,-0.328978000950431,0.0511066441023473
393,872,0.211606894955613,-0.202612180181597,0.95186194594139,0.0108129022254069,-0.0553548210825049,0.0280167622384852,0.0640768352769148,-0.37621029445045,-0.00264890416543673
394,873,0.211445612038383,-0.202047648963722,0.951944501374812,0.00919020099628654,-0.0419778967844385,0.0247279079387321,0.0230875758258624,-0.417465418130424,-0.121841818247035
395,874,0.211328391229545,-0.201480933010472,0.951993103952002,0.00836228479449731,-0.0305610566275844,0.0197966360779467,-0.0596496119331106,-0.468748962940867,-0.274295545599329
396,875,0.211244723695637,-0.200945189616956,0.951997840943297,0.00813004042628873,-0.0218216904686293,0.0135959368564068,-0.0631705002073957,-0.507937270598452,-0.411101928739315
397,876,0.211216195556267,-0.200496123301954,0.951950537387414,0.00849871277956708,-0.016929064271951,0.00616754001865915,-0.0817973520964273,-0.574436586769975,-0.546441430044452
398,877,0.211240586330044,-0.200160771269823,0.951850236799524,0.00910371960483033,-0.0157254204633605,-0.00123910048235013,-0.0468189233312419,-0.602414176316964,-0.596326812751651
399,878,0.211310541376113,-0.199885822402176,0.951705998837996,0.00919797030266809,-0.0154234413009168,-0.00847796579553187,-0.0276616650941312,-0.674568585519391,-0.615709947111242
400,879,0.211437473860746,-0.199772681168967,0.951514820610213,0.0114647059073435,-0.0171234805965011,-0.0157228101988611,-0.0729063890846605,-0.696786807264297,-0.622894981074594
401,880,0.211603175603318,-0.199793668853329,0.95128834364027,0.0132910515089299,-0.0207677903713778,-0.0216121987140389,0.0281356317138605,-0.643276694932771,-0.56047281605374
402,881,0.211811050183514,-0.199927270549441,0.951034778469129,0.0157237118972508,-0.0257343153108208,-0.026714232195818,0.10901759761746,-0.689637457358019,-0.517030922338805
403,882,0.212047909640026,-0.200163920816869,0.950757894520915,0.0180067373650431,-0.0317196072134004,-0.0312318477452362,0.120794460931748,-0.67617216287072,-0.481754714255001
404,883,0.212297687600193,-0.200490142149133,0.950457455236133,0.0201919642251317,-0.0379954048999526,-0.0356039900987882,0.161478291370926,-0.623675776727,-0.479027222521041
405,884,0.212621554585211,-0.20096409851345,0.949682919627852,0.0205102621383044,-0.0441300424108351,-0.039461417321264,0.187111014468686,-0.472465199814869,-0.475631330917832
406,885,0.212788620829783,-0.201335124778228,0.950197069573619,0.0209149723939933,-0.0486928859740968,-0.0435874766645275,0.160465084364395,-0.52655628547167,-0.4502539223564
407,886,0.212956320474497,-0.201758510071658,0.949802285020818,0.0217042228964261,-0.0549168336896404,-0.0531344347129793,-0.111008517180982,-0.7192841209311,-0.565361201436864
408,887,0.213068255039071,-0.202306804153681,0.949273818482655,0.0205947442303138,-0.0632489142979547,-0.0635511109511392,0.193514822071302,-0.308837245632905,-0.387334048864186
409,888,0.213140714777698,-0.202869344739231,0.948681625702873,0.019025178440295,-0.0673474042917043,-0.0736591926687543,0.0521032696483901,-0.3555333127167,-0.529161468842071
410,889,0.213137437500178,-0.203468089968532,0.948097288456202,0.0149354358798499,-0.0717169184644589,-0.0789748854399596,0.112983219857567,-0.333222219772966,-0.519781460896844
411,890,0.213071360872707,-0.204117009900236,0.947550481595811,0.0106454161239396,-0.0764397253722616,-0.0809800488766901,0.0965026643080185,-0.330970382361913,-0.498515502490308
412,891,0.212965604392727,-0.204834754879872,0.947040153845616,0.00714316403557958,-0.0815751667895384,-0.0805768286217005,0.125565422298366,-0.243576341308664,-0.414587275194583
413,892,0.212839107420468,-0.205623959223897,0.946548705597917,0.00529366918017781,-0.0874840300591241,-0.0795018903486308,0.0939362305365056,-0.176707475283492,-0.369904953238853
414,893,0.21276206854303,-0.206514004538869,0.946082892055213,0.00521661136465684,-0.0967462529806918,-0.077770548690022,0.0962438298991005,-0.119625454175568,-0.276752967566142
415,894,0.212629718085484,-0.207488245103075,0.945599969256757,0.00378635792770903,-0.100898832375114,-0.0752147203894799,0.0930020892136743,-0.374138913226798,-0.211857372839802
416,895,0.212545441087291,-0.208588728435458,0.945149220596553,0.00269440955041205,-0.110114874186931,-0.0669250387308772,-0.319749941613846,-0.194964564222615,0.276905870293848
417,896,0.212577787936247,-0.209762572344167,0.944791459796776,0.00656272473632773,-0.122562569293869,-0.0569389437574285,0.0523572196613952,-0.747176422372046,0.355087677449751
418,897,0.212815510663822,-0.210969970875748,0.944425407012811,0.0130202362198066,-0.132727345552411,-0.0560947497297311,-0.0717264728090717,-0.984628933397704,-0.22818303705196
419,898,0.213250432174234,-0.212169378479928,0.944059261786726,0.0267903232539674,-0.132131011594106,-0.0436354250467788,0.213006186389009,-0.711824076358681,1.34362485278619
420,899,0.213935566673642,-0.213180376575462,0.943783462828516,0.0427786642881489,-0.121881628949191,-0.0335392028662429,0.220803874824719,-1.00820853716208,0.925170522781449
421,900,0.214781831392002,-0.21389222383888,0.94361929578988,0.0573066853042434,-0.0999808661264841,-0.0087318049389302,0.271358141158876,-0.603381719578669,2.1784778743196
422,901,0.215760557753128,-0.214243147740539,0.943662997344544,0.0636374085343235,-0.072847704666074,0.0167420380289883,-0.0699443050784016,-0.343347330656431,2.29483500944251
423,902,0.216729716601951,-0.214198948229253,0.94386010859766,0.0633273387325148,-0.0445496885399173,0.0389286709084929,-0.273499256870418,-0.149386853476918,2.2495971103504
424,903,0.21760656386343,-0.213803330465886,0.944169772366761,0.056946624558012,-0.0178567592818213,0.0591001700542604,-0.422223839490184,0.1079457473205,2.20934529723489
425,904,0.218354471719807,-0.213204351450739,0.944574976478209,0.0478554270431052,0.00224721555669592,0.0771069051117326,-0.554369927358312,0.393961586369845,2.15525327949444
426,905,0.218961536387888,-0.212626308072898,0.945054241264104,0.0374530093946654,0.0140236865852362,0.0896720643040879,-0.550572059806492,1.37712827117575,1.54284497337187
427,906,0.21947116457484,-0.212129600098774,0.945524904351592,0.0280930876226566,0.0221011550758806,0.0905392462805279,-0.874900663223636,1.79799673650982,0.456130197101054
428,907,0.219952875019872,-0.211693186393776,0.945892344766804,0.0258212394454816,0.0257048140794914,0.078359826652229,-1.13319674290259,1.01850741307692,-0.661517143328808
429,908,0.220529605306074,-0.211417534931384,0.946081219501874,0.0320295355461676,0.0198921493990992,0.0563281796733285,-1.27238638313724,-0.215336274042642,-1.45359902800201
430,909,0.221189427733867,-0.211471765919591,0.946081160241734,0.0366306464512691,0.00030449580002726,0.0321257217225246,-1.05341854784888,-0.883909077631611,-1.74570908642979
431,910,0.221855825627595,-0.211960163437609,0.945927110633485,0.0350547449276112,-0.0310956646877887,0.0123411864749921,-0.470744387013644,-0.777686500355848,-1.59230336919653
432,911,0.222464856547958,-0.212827925873741,0.945665702952324,0.0335207474971031,-0.0657582542570767,-0.00215631164373732,0.324774870141694,-0.51358116215077,-1.28570355531789
433,912,0.22299761836165,-0.213919777892156,0.945332496677023,0.034609819160708,-0.0934449113288711,-0.0125308558267635,0.834914082951615,-0.394970360655842,-0.983819544279118
434,913,0.223460732106702,-0.21506204000569,0.94495304214266,0.0385305149327382,-0.10889300262665,-0.0195956709158493,0.978936023407689,-0.344580060207745,-0.669093796986802
435,914,0.223900501654082,-0.216270464989763,0.944561280504989,0.0462322533154707,-0.111654686044629,-0.0279831903998073,0.653890462772248,-0.251469092785491,-0.669041229825946
436,915,0.226119650926796,-0.2162284321479,0.944178885585719,0.07727176584385,-0.0877483432834062,-0.0372076916440713,0.302530398278448,-0.230783547692022,-0.715206983302327
437,916,0.227213042784909,-0.217132780858362,0.9437887620938,0.0929640358791552,-0.0741616986628489,-0.0442223885065974,0.142603298451478,-0.310254532030363,-0.605804855708938
438,917,0.228991534529369,-0.217587269353451,0.943422266926534,0.108327096967276,-0.0656777742388566,-0.046155750618317,0.203941291734083,-0.181585383335543,-0.346715183024999
439,918,0.230464577123189,-0.218356952755819,0.943150351135389,0.114725509283024,-0.06655766492719,-0.0447215100758721,0.312903572780786,0.203247422038738,-0.20662680528888
440,919,0.231845450356483,-0.219165138577633,0.942967963376291,0.117522463130689,-0.0678154782045945,-0.0420133228408672,0.302929871527857,0.564240464265597,-0.134793258857569
441,920,0.232899095506818,-0.219999686155831,0.942844305657912,0.114762812113165,-0.0640889427464361,-0.0387852250091011,0.0777407918388437,0.659612660950281,-0.0192857007562321
442,921,0.233706433344158,-0.220691576168507,0.942774264178867,0.106787143587218,-0.054063935928361,-0.0336039182755978,-0.159188162290547,0.670985449087467,0.198241755683202
443,922,0.234237110087578,-0.221270886699156,0.942655786587733,0.0926258690192184,-0.0425561432949626,-0.0268108569021737,-0.336368489781195,0.749991318188977,0.424042972998422
444,923,0.2345282155364,-0.221789140135892,0.942536000471987,0.0739854874352067,-0.0341760962728992,-0.0183283763036192,-0.351559006897271,0.841545908290098,0.594575488307692
445,924,0.234601365039374,-0.222327183220101,0.942477584982641,0.0541309015964644,-0.0311926770488429,-0.0106525546429216,-0.426534480624242,0.823715497292608,0.568018364816172
446,925,0.234605278221187,-0.222898125306569,0.942500991659742,0.0362403771137817,-0.0314581311944145,-0.00339790073696959,-0.435245839920642,0.820344154409649,0.540022816512255
447,926,0.234558080350901,-0.223522173478587,0.942577336878446,0.0214049087024108,-0.0365567041084687,0.00350489410176638,-0.409072853905168,0.905341701346469,0.50486804680407
448,927,0.234449498116888,-0.224174535727355,0.942738641471858,0.00806981678314369,-0.0444995941761319,0.0111158488173366,-0.310497623433215,0.866713450340511,0.499897487278399
449,928,0.234288788819259,-0.224818670281821,0.943026386384106,-0.00163478534205629,-0.0518900378693169,0.0177584143815453,-0.261174394333476,0.720459467586348,0.40631225695561
450,929,0.234104119215904,-0.225352283814685,0.943383488263625,-0.0062321815543811,-0.0545010884376624,0.0223179353474263,-0.166141443446049,0.549966871300097,0.285117120823466
451,930,0.233930749906013,-0.225827445421383,0.94369766904,-0.00711295349050859,-0.0537493762918203,0.0246116073523253,-0.142788397575884,0.433540295172871,0.177181367749776
452,931,0.23380856643718,-0.226232104898231,0.944030035402333,-0.00610531784474979,-0.0505176006165104,0.025777034440956,-0.0646496789832508,0.235397248057962,0.0789993203035542
453,932,0.233753034762623,-0.226663236845735,0.944373097047606,-0.00531400193211304,-0.0479676970564807,0.0266977528928186,0.0278462383847339,0.121235394364044,0.0395545577360788
454,933,0.233778705211031,-0.227101307257725,0.944658940030184,-0.00477307046668152,-0.0449837881772772,0.0269377773057151,0.0589482844127171,-0.0195508961725626,0.0202979470203741
455,934,0.2339297193411,-0.227519490216526,0.944855783919077,-0.00347186342017813,-0.041482212727303,0.0269803593840449,0.0761363716322104,0.0093877998215177,0.0497461183861809
456,935,0.23418583445699,-0.227897430856871,0.944994713688918,-5.23732537363117e-05,-0.0375513970107871,0.0270844819808651,0.0291359990829175,0.0614896005671737,0.108632292601819
457,936,0.234529275126587,-0.2282235086374,0.945091725187782,0.00486279185796507,-0.0341065132979092,0.0270553661271553,0.0241472461242684,0.0909975109215831,0.147821901468499
458,937,0.234992421689785,-0.228447249561096,0.945138082565289,0.0127680938175735,-0.0288822722651687,0.0258778057284415,0.00598782383268989,0.0304497011959844,0.127454308244223
459,938,0.23557667972247,-0.228490973432934,0.945122968616654,0.0228641173608442,-0.0213032916349597,0.022946615164855,-0.137192062916387,-0.0692419184646542,0.0505085508663949
460,939,0.236184506303539,-0.228424850588504,0.945052291358336,0.0316515937019619,-0.013349348657278,0.0198965062942358,-0.254515271626236,-0.0719710462270714,0.0680516501655706
461,940,0.236778804781802,-0.228206774349309,0.944932721885866,0.0377920432821003,-0.00584831554942659,0.0177003106823582,-0.208048611828379,0.035892997430483,0.143062563155136
462,941,0.237356458456679,-0.227767194063753,0.944965510230153,0.0424920447409527,0.00444106668358448,0.0162807695410084,-0.201314759655166,0.138284663414456,0.151119050288588
463,942,0.237912502815681,-0.227222995831211,0.945032305373494,0.0449074048824293,0.0144728061614768,0.0156680081293616,-0.185308178015106,0.217063777599536,0.185909990430571
464,943,0.23843042290207,-0.226503294356975,0.945077231511472,0.0455230007221336,0.0254908289473847,0.0151823976814309,-0.213788313440216,0.268738992349921,0.20802487724395
465,944,0.238898654897888,-0.225619343862624,0.944983818016534,0.044243244587565,0.0373272436860561,0.0140729536577177,-0.191676224481555,0.375553820182896,0.201198613650032
466,945,0.239320469898672,-0.224730907771494,0.944897759469668,0.042151086889223,0.0475123703706498,0.0130417856963614,-0.148331350044125,0.316003415516221,0.206787639493169
467,946,0.239731385402124,-0.223826792689584,0.944811955127889,0.0410410537740052,0.057870151045344,0.0114515726727695,-0.119077946401856,0.256736525561212,0.175514555663513
468,947,0.2401478357263,-0.223046599304853,0.94472586138716,0.0410138675622431,0.0656802864749569,0.00946697006359579,-0.0816880824216885,0.176013044347852,0.14182016369951
469,948,0.240555851566838,-0.222049370760636,0.944641601358189,0.0402957054919559,0.0751099815303363,0.00755281312197412,-0.0550741899707771,0.0803012919570742,0.125981613829507
470,949,0.240995173353788,-0.221197390936311,0.944554534016325,0.0423759947891406,0.0819470887846133,0.00449815683615299,-0.0331088850588791,-0.0200920760107386,0.0322854764206495
471,950,0.24147456968898,-0.220307850154021,0.944462442081622,0.0455699830362255,0.0867963968046856,0.000830738262857349,-0.0168800283502898,-0.0891033229243298,-0.0521668952972726
472,951,0.241993298604729,-0.219517102128489,0.944367179482046,0.0483534452526023,0.0879538362147866,-0.00272510099568308,-0.0152354996867421,-0.140786050750232,-0.0831471941683258
473,952,0.242542343755463,-0.218785931220926,0.944272020087677,0.0515461573241355,0.0869646447564807,-0.00618287085044932,-0.0233876255388204,-0.203997650066343,-0.109894906214402
474,953,0.243105244983973,-0.218136421900313,0.944179381773728,0.0540836595206896,0.0848234760715486,-0.00977666452369036,-0.0814747500602654,-0.171460332881048,-0.152546150461673
475,954,0.243641396189284,-0.217561724536722,0.944094562950982,0.0546498717471771,0.0810865683369202,-0.0133847167770576,-0.103727591527337,-0.118988060816013,-0.213777400871187
476,955,0.244131732768241,-0.217060033227951,0.944019751183137,0.0541711691226279,0.0772415545192596,-0.0170745213267358,-0.137987291563445,-0.0953173099577054,-0.270474854675777
477,956,0.244564580651304,-0.216632730548972,0.943957422465629,0.0529060288085089,0.0720151861137715,-0.0205582729030598,-0.0916464762044447,-0.0545172406382241,-0.311217978173776
478,957,0.244927197133843,-0.216292030136597,0.943912854135415,0.0500506559671714,0.0661827694658497,-0.0238308364717715,-0.0550852404085179,-0.0145390360832527,-0.36467449938542
479,958,0.245248945866332,-0.216032697100242,0.943892612755214,0.0463071475854299,0.057762748509313,-0.025967221592448,-0.0394947055433783,-0.00919723209625528,-0.343205133015907
480,959,0.245470020271977,-0.21594614580337,0.943907899948694,0.0407807090695144,0.0485043697602618,-0.0273772285700988,-0.0196245581005891,0.00113470861010227,-0.358484877189431
481,960,0.24562016720636,-0.215978544809558,0.943957848365294,0.0352811448802578,0.0392108987153714,-0.0277844270144536,-0.00581700712514415,-0.00240763157081358,-0.334210895712062
482,961,0.245701370235959,-0.216107156965032,0.944045517608604,0.0291866061470457,0.0303366339001145,-0.0274962079905143,-0.0182289681473222,0.0237517466553735,-0.327546889083599
483,962,0.245714342032279,-0.216334178882266,0.944172585835118,0.0226343607083571,0.0209948993196582,-0.0262413022681508,0.0167720496604309,0.0307584075123556,-0.304697720198175
484,963,0.245659872051141,-0.216653513735132,0.944337330762744,0.0163527043761854,0.0114027394028174,-0.0248314347052017,-0.00376839558195132,0.103290037042811,-0.33015600202461
485,964,0.245517294775211,-0.217035040716119,0.944538706905523,0.00881106332229781,0.00300543715824587,-0.0223998799419644,0.0718214528008835,0.142320397193674,-0.301922657280418
486,965,0.245322897091614,-0.21747286143386,0.944768141928958,0.00344623552619558,-0.00447120097237969,-0.0203898939284994,0.00557802854306856,0.142652474739852,-0.326066317456632
487,966,0.245082218344989,-0.217963125881405,0.945018916745421,-0.00162348605683721,-0.01178592820555,-0.017817707846492,-0.00322513025491561,0.199720472056095,-0.300796719740389
488,967,0.244777510369045,-0.218494909741322,0.945290671204272,-0.00796565826217657,-0.0179623144918447,-0.0142682541479687,0.0387346537284819,0.210768381956453,-0.230576894706829
489,968,0.244413888266356,-0.219065126216549,0.945580738297526,-0.013705453050215,-0.023675844911187,-0.0105093470857824,0.00900343515447913,0.231861002704179,-0.187756836173583
490,969,0.243989696296314,-0.219662820298403,0.945881891240267,-0.0192114602903629,-0.0281697103412607,-0.00676182515373472,0.0100273933563613,0.285657663555966,-0.164457909568027
491,970,0.243513381340063,-0.220270676593351,0.946185566875985,-0.0243705031637817,-0.0318946398301138,-0.00296693311265115,0.0355242896854758,0.241231275246296,-0.132916620673039
492,971,0.24298766478704,-0.220898065528265,0.946483951403454,-0.0295550198354126,-0.0361667021570986,0.000353608840938204,0.0420019682962081,0.205745626641082,-0.145744504912141
493,972,0.242263999587058,-0.22168815282119,0.947002286865139,-0.0337034665124913,-0.0400871830977878,0.00274495254723213,0.0614634441969992,0.151937958161433,-0.151795961669629
494,973,0.241646163195725,-0.222304950050653,0.947262492451144,-0.0379479016537638,-0.0428018962345529,0.00510653026324775,0.0345159554297129,0.14664812101536,-0.142162772508756
495,974,0.240943783489964,-0.222906221572399,0.947506712302261,-0.0458132771328504,-0.0472013434793924,0.00914043789348409,0.0716596030576719,0.101032745719856,-0.103097906307035
496,975,0.240176426458111,-0.223488204203081,0.947736514711629,-0.0546294813243474,-0.0504211789643416,0.0134271614724591,0.0832028810817341,0.123504173937264,-0.0659721870596962
497,976,0.239365320718476,-0.224006041068546,0.947938513442905,-0.0622245990486022,-0.0510318480754028,0.0163730601661468,0.0542983418610227,0.143082456809711,-0.0760259954656735
498,977,0.238525607159404,-0.224449528120637,0.948100836996822,-0.0686348258038136,-0.049049669958175,0.0180732531022734,0.0397872060703801,0.145188144946037,-0.0740656363095453
499,978,0.237684309075342,-0.224783105057722,0.948214415602494,-0.0737669271001977,-0.044633569239821,0.0187212533592204,-0.0724194808127978,0.165554972564859,-0.0537071613108065
500,979,0.236794404578009,-0.225065492105978,0.948282649350598,-0.0777866728808721,-0.0399137742566291,0.0183781934089337,-0.0991746693520814,0.173014598322448,-0.0518985853506735
501,980,0.235876076325652,-0.225267084020969,0.94829740313298,-0.0812794364509259,-0.0343112971503195,0.0169110757942749,-0.146589682444914,0.201254174986758,-0.0754237326585483
502,981,0.234922998163488,-0.225373381124301,0.948255236408133,-0.0848733793455749,-0.0274075680252056,0.0148436905024102,-0.140030474360682,0.22585284818295,-0.0732597739662761
503,982,0.233946383620519,-0.225384576632301,0.948159598877518,-0.0884843111614254,-0.020374406797445,0.012630763206554,-0.0954740853760884,0.225431480626798,-0.0478255167440643
504,983,0.232936281949553,-0.225308330125351,0.948019660885245,-0.0924563699098122,-0.0133067391212223,0.009899359000615,-0.103179054638206,0.237251577332523,-0.0683212146183006
505,984,0.231902646610611,-0.225129721702815,0.947839775266124,-0.0964000840223837,-0.0056280416209181,0.00719918681627338,-0.115192390845099,0.249730040200859,-0.0564757072979032
506,985,0.230862544895744,-0.224810489443056,0.947622444084917,-0.099217747858364,0.00276643586976838,0.00402722433699912,-0.13922605127185,0.193342362825051,-0.0778494241885993
507,986,0.229836216491216,-0.224349887129955,0.947381946545543,-0.100931073041291,0.0125180249258186,0.00103103863293843,-0.165095831226325,0.187253391803701,-0.0601773534659471
508,987,0.228806103193733,-0.223730311651417,0.947345840106371,-0.104970732903185,0.0220771927597047,0.00617026127641647,-0.523202411514535,0.00946437394150335,0.430554539185086
509,988,0.227893355255586,-0.222908160921135,0.947408369303138,-0.107614200430235,0.0330542546793737,0.00532018280995166,-0.897860806904286,-0.0979047670963395,-0.129927946308474
510,989,0.227469723043974,-0.222352581956802,0.947251520747267,-0.100898069811322,0.0310096998498132,0.0136550356863363,-0.55451642650561,0.0118128740493833,0.987990008046473
511,990,0.227750438300991,-0.222436884211021,0.94714160762384,-0.0834172979212466,0.0154001607640222,0.0292338990985121,-0.246613870939359,0.165736925604058,1.63625504607576
512,991,0.22853820395448,-0.222932390344247,0.947158716216367,-0.0564065215921269,-0.00452763591179167,0.0437140507029409,0.0149587992594277,0.251229998871817,1.55790470682436
513,992,0.229580904997208,-0.223524902442892,0.947218690918742,-0.0281157202724072,-0.025246315253735,0.0545480907454458,-0.11114330568388,-0.0283509017574681,1.51738892984628
514,993,0.230693412791892,-0.224100439643012,0.947291511014234,0.000378660474068033,-0.0405965166600119,0.0632192626638101,-0.211808336017965,0.15833966199682,1.51350376641552
515,994,0.231766897340687,-0.22462489452395,0.947389691304146,0.0281563146188941,-0.0527180466868574,0.0667305482050038,0.123248264950585,0.150115124411137,0.994566225928853
516,995,0.232800439614131,-0.22500367516848,0.947454753889962,0.0551834381699252,-0.0538215847253014,0.0603534255055712,0.275016337646985,-0.157703205090377,0.152344662838219
517,996,0.233796105106536,-0.225178593500979,0.947427123522136,0.0757381145744499,-0.0439518193920522,0.0472721044394317,0.107542137866249,-0.354888559872719,-0.495547497199899
518,997,0.234432940467226,-0.225013761470237,0.947231665306684,0.0798468508235841,-0.0254118039202012,0.0305588775833532,0.137892409635748,-0.399420303918073,-0.890452954702556
519,998,0.235521296320944,-0.225732708686778,0.946964891890767,0.0846253831670179,-0.0143744215011978,0.0124517015455358,0.127828592941338,-0.363704046606215,-1.13721902850024
520,999,0.235534311124971,-0.22509655866563,0.946597876055863,0.0728563516785699,0.0114249989295795,-0.00485338300652706,0.00374406405054109,-0.227526940084658,-1.18423802914306
521,1000,0.235784805829295,-0.224660026937338,0.946162735990887,0.0576532187300208,0.0301507874299417,-0.0184230833993667,-0.0650722143348611,-0.120474580170531,-1.03359775524017
522,1001,0.235711977868563,-0.223820854102472,0.945713505522924,0.0346673617891261,0.045879119503525,-0.0257585841469019,0.0283571962022374,0.0767061530219018,-0.70922259522909
523,1002,0.235562076472949,-0.222932018475909,0.945300711819181,0.0108780485525574,0.0548192940357452,-0.0281538266050355,0.0556791564669125,0.268475982365013,-0.421808688424665
524,1003,0.235245298960105,-0.221884396499428,0.944941335204297,-0.00866115944502113,0.0625373150688467,-0.0282312977556832,0.01783454188453,0.380179232229983,-0.247797479818232
525,1004,0.234826980724667,-0.220768473322785,0.944633059372963,-0.0221001696849681,0.0689157913897953,-0.0272905161601904,-0.0312280608637872,0.336290186688571,-0.130263531287072
526,1005,0.23430935527022,-0.219558676060282,0.944366205915031,-0.0290437158878322,0.0752776694325163,-0.025670290492422,-0.0739644830127091,0.323391349144346,-0.00826662827381458
527,1006,0.233718809202694,-0.218287201972694,0.944140170880655,-0.0332695363690666,0.0802928199862052,-0.021693359532877,-0.042981832308682,0.41094005258764,0.204818140788514
528,1007,0.23306826407785,-0.216972393883091,0.943958194488389,-0.0364279171456131,0.081883896107617,-0.0158329388358343,0.032260992580317,0.37608598951841,0.365593282769082
529,1008,0.232421541383845,-0.215690246378218,0.943820564433748,-0.037732294831146,0.0821802794690957,-0.00908063657697859,0.391520198618378,0.445811436942338,0.428084075843594
530,1009,0.231831615390867,-0.214549409925838,0.943832564463433,-0.0390821359141881,0.0808158607684308,-0.00314271917773804,0.441423676451037,0.392328910504661,0.327834956151099
531,1010,0.231327895561399,-0.213574697917302,0.943893433115712,-0.0386020159412037,0.0809570270530747,0.000632729392059275,0.316497521461738,0.279979498181165,0.215159648492365
532,1011,0.23093550591138,-0.212809411993818,0.943968164728455,-0.0342558309151502,0.0810397595115784,0.00328563429941152,0.24596948703546,0.0600144455977501,0.203946819282019
533,1012,0.230616447282542,-0.212211276498973,0.944090366431998,-0.0273825528582546,0.0795151814005247,0.00550342185627455,0.209840559516442,-0.171844301668485,0.236272528829118
534,1013,0.230482047243642,-0.211796212399037,0.94417882576232,-0.0214198991542871,0.0741415226681739,0.00800419669841739,0.172893540206421,-0.294103763041314,0.231355541404091
535,1014,0.230378058333756,-0.211465057941359,0.94428939002829,-0.018770008721212,0.066681036196447,0.0119504120900365,0.305531884304698,-0.390398270959596,0.295069410502054
536,1015,0.230259933474086,-0.21114520701503,0.944425353092949,-0.0187218228232877,0.0578573144594863,0.0157449179818908,0.290601600270414,-0.461460555983853,0.281173049135648
537,1016,0.230097645234326,-0.210737548931932,0.944568056605667,-0.0182380568948837,0.0536583179476446,0.0179644272776966,0.212614683269588,-0.509894683756864,0.21807971559733
538,1017,0.229903393580172,-0.210176721394535,0.944693666430845,-0.0158722976403134,0.0543043184644165,0.0171779635944731,0.0358501322658326,-0.509600088401657,0.0565205672153495
539,1018,0.229706890441168,-0.209427840090428,0.944767673417881,-0.0143590119656519,0.0587145694849936,0.014554520391968,0.0338616751693405,-0.556589607377735,-0.10777189104926
540,1019,0.229423858627582,-0.20853007080793,0.94485473275082,-0.0148162938591281,0.0622500949327103,0.0124019360399017,0.0355115011418096,-0.544520364742162,-0.0648265983246701
541,1020,0.229093368685136,-0.207502763503233,0.944962849194081,-0.0191559461169603,0.065410457527018,0.0123744291668094,0.0660147932455819,-0.472103020753531,0.0496618616268976
542,1021,0.228717413753135,-0.206319094928895,0.945139328699432,-0.0239796198975446,0.0707253853686941,0.0149541025438646,0.12849257317749,-0.344212761537378,0.219647714552582
543,1022,0.228297289699342,-0.204992584856734,0.945404197347869,-0.0288228717171648,0.0784865303062203,0.0188157235063542,0.047857131318733,-0.185366935949709,0.280534670215542
544,1023,0.227857037821845,-0.203494251520367,0.94575045993863,-0.0318374725911294,0.0905325472304935,0.0226476008969994,-0.0930906642206256,-0.0261912302148036,0.256836916544486
545,1024,0.227362062025132,-0.201866050616436,0.946163411334987,-0.0366605260783351,0.103280425868817,0.0268754536843559,-0.143762216238986,0.0964952677655537,0.243682602666989
546,1025,0.226769456114224,-0.20013401330813,0.946636744509722,-0.0440255888620843,0.1161733144359,0.031373025797477,-0.14963602389745,0.24164515321248,0.23171855539623
547,1026,0.226049638894816,-0.198383743079728,0.947164571441927,-0.0532221331989331,0.126698959369257,0.0348912907330426,-0.141154020257469,0.327644845692628,0.114409508667605
548,1027,0.225203646985898,-0.196719735463989,0.94772737589028,-0.0637419218130467,0.133937859716165,0.0381843902680745,-0.109530329601444,0.331595126605078,0.0359725218274387
549,1028,0.22421923392875,-0.195006479647043,0.94835366611854,-0.0734681151040804,0.139505237536117,0.0394574745724876,-0.195775447057688,0.294228700925321,-0.118408016665847
550,1029,0.223166857399037,-0.193428317289056,0.948932553439736,-0.0809401676326228,0.142722920027884,0.0386682696740923,-0.143147995725463,0.198281829646796,-0.198620410951136
551,1030,0.22197166058986,-0.191865874908065,0.949393231357617,-0.0868830028616396,0.143404136991661,0.0360846109545557,-0.10837255736661,0.0761442187728281,-0.24301543561797
552,1031,0.22081207641647,-0.190398030014692,0.949752987622906,-0.0896121352856789,0.1411460940846,0.0331766869071162,-0.00222591893272914,-0.0245674514739148,-0.204693971215836
553,1032,0.219571862758027,-0.189089185478793,0.950023767586639,-0.0946740275920121,0.13446742119816,0.0315450889495946,0.226613366464569,-0.0199485967340272,-0.0848110713172831
554,1033,0.218398619430104,-0.188045244924932,0.950236641145974,-0.0975344453095373,0.122844270967417,0.0310408492102302,0.290769477499225,-0.00926970438383878,-0.000973718367679557
555,1034,0.217452895327837,-0.1874970993279,0.950436011823481,-0.094004021926473,0.105437488158768,0.0293058206165608,0.303609855724509,-0.0199219371951627,-0.0661856111584894
556,1035,0.217045788200524,-0.188150225789843,0.950625592725548,-0.0811384155713447,0.0695895397295259,0.0275171236018612,0.258800846384509,-0.0689565747411815,-0.0813631803888088
557,1036,0.21727530922814,-0.190339137631491,0.950820855716639,-0.0606201369848726,0.0155731879231397,0.0265745803244279,0.185053045260302,-0.0532747567834676,-0.0286479680380581
558,1037,0.217953510625986,-0.193553989492673,0.95099871385293,-0.0374522301086682,-0.0476780776134771,0.025778859151724,0.116421566302292,-0.150138917914659,-0.0490261244573304
559,1038,0.218788936682229,-0.197107785463607,0.951137347660463,-0.0160800621165895,-0.103515123653161,0.0253562059535337,0.134175440498367,-0.286400567537769,0.0258684969094089
560,1039,0.219646121839871,-0.200497656068673,0.951247366689426,0.00216229634728168,-0.145379977439199,0.0254073171418627,0.100648013391686,-0.287566773194177,0.111782778201096
561,1040,0.220446908272385,-0.203418436378807,0.951342798833681,0.0163565892006181,-0.169190946241143,0.0252682290235348,0.0476016217249233,-0.239440790539527,0.122454001572299
562,1041,0.221152653283919,-0.205753448434588,0.951434224879733,0.0264617949833112,-0.179457064985366,0.0247736844465405,-0.00458712461642019,-0.280236383345528,0.0949716850304014
563,1042,0.221749007370094,-0.207503180085755,0.951528594436875,0.0321561735783124,-0.17999092706653,0.0246597065676457,-0.0558927099176817,-0.289471602545611,0.113692266101523
564,1043,0.222246610042091,-0.208674276499096,0.95162591139998,0.0344578786144655,-0.172894209437767,0.0241626948000909,-0.000695478869412819,-0.285238361023162,0.0575489706433429
565,1044,0.222584486967677,-0.20923752771221,0.951697481473113,0.0332687281320998,-0.161370020167201,0.0233087500629367,0.0657381853470565,-0.342262889566181,0.00136598159960807
566,1045,0.222861352861014,-0.209560127899441,0.951807577483798,0.032607162859902,-0.142957907399485,0.0211087194651332,0.06926775715971,-0.257786598301594,-0.124224344551741
567,1046,0.223062048842043,-0.209536238551728,0.951904419710272,0.0315431720410886,-0.119888816450206,0.0180877175101922,0.148992309142797,-0.3686234067982,-0.198321725311588
568,1047,0.223223998035341,-0.209231383930551,0.951984964894216,0.030898974624378,-0.0955892201587852,0.0139319270161298,0.115567127871074,-0.321827379262749,-0.319423884519706
569,1048,0.223335286388494,-0.208722764331202,0.952045679904233,0.0294267970430658,-0.0725043092886818,0.0100724956021434,0.159919025096681,-0.326055768524196,-0.335430429806322
570,1049,0.223404421094165,-0.208084289588448,0.952087531475135,0.0276191541772457,-0.0527922259954336,0.00629330097717597,0.160970280844187,-0.302005347042487,-0.358345687006873
571,1050,0.22344169827906,-0.207384238681055,0.952115660195919,0.024607687728221,-0.0370267159769112,0.00351942679300224,0.130079844648539,-0.307870582210419,-0.299061012194159
572,1051,0.223469438499076,-0.206649945608012,0.952127186280937,0.0219131228239789,-0.0221541194398162,0.00022429952727311,0.100311455774051,-0.276633823463713,-0.340869480577318
573,1052,0.223486690163865,-0.205938100078093,0.952126999153397,0.0186266820921034,-0.01133592650324,-0.00203276529764159,0.150034488524596,-0.26435961584387,-0.291258913103773
574,1053,0.223502997415376,-0.205289678124883,0.952114928400523,0.0158125434110458,-0.00383626687866781,-0.00422576104262905,0.0881722090931134,-0.248702975122683,-0.288078973895779
575,1054,0.223510654987931,-0.204729327848702,0.952091676572636,0.0126667949468131,0.000820935315631919,-0.00625431775949366,0.121950486772994,-0.248237271572431,-0.302878430255295
576,1055,0.223522897490246,-0.204291595588661,0.952055308717782,0.00986602809634762,0.00162903722501328,-0.00785699770959532,0.108204575376259,-0.290389151925086,-0.272772607672078
577,1056,0.2235453350616,-0.204006964936966,0.952004751903985,0.00738481199133764,-0.000599551018264688,-0.00970568801678177,0.084526477050985,-0.29685145286868,-0.305164864469307
578,1057,0.223572560694483,-0.203891581817306,0.951937741502644,0.00561036258133158,-0.00523701210879983,-0.0110844131447103,0.139631232470993,-0.275925601401967,-0.27338472036752
579,1058,0.223635010249878,-0.203870552088298,0.951852864850347,0.00601967034568962,-0.0101609707811525,-0.0131092754164874,0.109678300932157,-0.314749251428285,-0.286544435016385
580,1059,0.223745473068199,-0.203983525196019,0.951738778446738,0.00899580559015877,-0.0139106404928255,-0.016160308661047,0.011984084228859,-0.319973370771525,-0.321192874011849
581,1060,0.223895235694186,-0.204169919388287,0.951595821470505,0.0126767876032996,-0.0179437810415809,-0.0189830776430628,0.029966083833871,-0.31769180018506,-0.300652301314395
582,1061,0.224088790583119,-0.204394920240472,0.951424148467553,0.0172005860107074,-0.0221553913378711,-0.0218551650963109,0.0288342028316208,-0.325330949721118,-0.29044671177264
583,1062,0.224285867785459,-0.204654131480156,0.951228930031035,0.020741170904407,-0.0273837810426125,-0.0237360299209473,0.123953834514072,-0.28296978997036,-0.230684993694825
584,1063,0.224490088904302,-0.204919104032826,0.951009634282932,0.02417832211915,-0.0316901314288733,-0.0261925934710579,0.203103569206976,-0.311354092839206,-0.266907527545459
585,1064,0.224696950906928,-0.205187728754785,0.950761450522339,0.0270422746250974,-0.0352651414745105,-0.0292479723549076,0.185672528618305,-0.365066459465481,-0.307718022313661
586,1065,0.224912616209272,-0.205460922939538,0.950481707457385,0.0297773666523409,-0.0381400237296364,-0.0330634019843767,0.140672994095089,-0.37954962106238,-0.365150412249934
587,1066,0.225128987274125,-0.205746710800223,0.950168022343272,0.0309133906317077,-0.040615608574986,-0.0372827552346948,0.0716812315711538,-0.401258711913863,-0.409578383241334
588,1067,0.225327801170201,-0.206069267778793,0.949823252558556,0.0302917320218747,-0.0440524307432895,-0.0409988306286662,0.0809543708530655,-0.386153191321265,-0.392770448755379
589,1068,0.225482803861561,-0.206452456493009,0.949459373966694,0.0269687678190579,-0.0491105347939996,-0.0435597239167093,0.102164474153822,-0.360939932776564,-0.334150568857348
590,1069,0.225588661708786,-0.206919265925214,0.949078815688329,0.0226463149760813,-0.0555921435454635,-0.0455516890838044,0.0853849933156039,-0.333587540632813,-0.290091620673899
591,1070,0.225658512288174,-0.207451739877195,0.94867660623757,0.0199571816147137,-0.0608528707132468,-0.048509575521793,0.0856031645751658,-0.303879724844919,-0.344959906832146
592,1071,0.225686389078545,-0.208039522621968,0.948251681108544,0.0170066013893312,-0.0651416761774707,-0.0509084002189907,0.116365254007198,-0.289544695428295,-0.310383437981855
593,1072,0.225679789609079,-0.208691898803792,0.947809917553605,0.0142598559418853,-0.0716933002876324,-0.0523701476780826,0.108660972605335,-0.272669901852807,-0.245072926199669
594,1073,0.225644560977387,-0.209420536780818,0.947352858021033,0.0120122657909259,-0.0783968406863468,-0.0537062497926855,0.181499511109681,-0.262189194689586,-0.224858738665101
595,1074,0.2255922566502,-0.210225874262004,0.946881994554472,0.0104133593147046,-0.0856797650573156,-0.054643832178349,0.206730116249513,-0.282067707597821,-0.176440922670296
596,1075,0.225526261115563,-0.211098637737378,0.946412605692746,0.00819634507007552,-0.0920624932699828,-0.0531965962564449,0.092067196203178,-0.306728238550737,0.0548928261380956
597,1076,0.225492698328808,-0.212015422310021,0.945991286167893,0.00663510002064554,-0.0994288983977146,-0.0481337697554902,-0.0116459559815913,-0.497152129120347,0.373217233071521
598,1077,0.225522500267235,-0.212976656614177,0.9455847596346,0.0105767541413009,-0.109137278135225,-0.04838414058521,0.16125523016814,-0.920017748013531,-0.079761214198706
599,1078,0.225672091804923,-0.213897675925009,0.945182371119482,0.0160855477538042,-0.111306351698382,-0.044791719235143,0.249984859894642,-0.82500164974359,0.554887268449278
600,1079,0.225950138286476,-0.214729578480037,0.944834975689538,0.0255729717221027,-0.105392418459596,-0.0370619922108339,0.278094446681642,-0.834049573038141,0.906719275117989
601,1080,0.226337146370744,-0.215389016251393,0.944563991676218,0.0340767878278491,-0.0942427297311297,-0.0253136990635371,0.236745271334265,-0.844217856888099,1.05649007624363
602,1081,0.226806289524261,-0.215853920757329,0.944418598194472,0.0385642519442336,-0.0804259353520143,-0.00651881591083669,0.146053292288748,-0.674242336660974,1.70779198754709
603,1082,0.227420736796583,-0.21557484055742,0.944929747357885,0.0335246910322092,-0.053966860022064,0.0113131795058062,-0.327520639967669,-0.774944677137773,1.82927701102101
604,1083,0.227913699713472,-0.215461806535293,0.945175490079883,0.0316350956387057,-0.0482817383028253,0.0249764910351795,-0.329346000117833,0.206259040269566,1.67015784767546
605,1084,0.228420290097131,-0.215463326149189,0.94530820157499,0.0328625148232587,-0.0409375654147712,0.0403195060188904,-0.145398648262745,0.0324148772983065,1.41059827858524
606,1085,0.228959631348676,-0.215180344960519,0.945510359112818,0.0323393184015662,-0.0170489139661211,0.0517435904003876,-0.462704925879585,-0.541557003771665,1.1205035875458
607,1086,0.229496131549148,-0.214926071217202,0.945713930156569,0.0295815324570242,-0.0091873455470771,0.0563796237488891,-0.534091710277526,0.74361530110266,0.735466756128942
608,1087,0.229992015931659,-0.214770385633042,0.945858564590235,0.0265045096198322,-0.0117100775918164,0.0527479144948194,-0.589929125298253,0.967949367634864,0.209004961932778
609,1088,0.230453867526154,-0.214741280875803,0.945914198170441,0.0260455811303689,-0.0186830252328998,0.0429803763686565,-0.607807730044292,0.387219117253152,-0.203426230885692
610,1089,0.230894544005547,-0.214904855398945,0.945881445433131,0.0276825337376209,-0.0285487990973655,0.0305608953187592,-0.410893034695745,-0.000951483351957836,-0.531134562702223
611,1090,0.231340367374681,-0.215278692751908,0.945770797251646,0.0298946487247157,-0.0410271545938474,0.0182486435417518,-0.258847615602729,-0.286732489778249,-0.705246994021446
612,1091,0.231817428226313,-0.21582496900619,0.94559228603644,0.0331070349961787,-0.0527770101534409,0.00552015864150731,-0.220496809388704,-0.376522811672188,-0.890315124832054
613,1092,0.232473002163185,-0.217145149173613,0.945171212463572,0.0362351990568396,-0.0754091478608835,-0.00748716807043974,-0.0237583689763221,-0.500761533555686,-0.972951180805371
614,1093,0.232648979260855,-0.216667704969492,0.944949849688716,0.0333071519228933,-0.070613171903983,-0.0182734614332812,-0.0557050200984757,-0.462328659899952,-0.962904308324301
615,1094,0.232932461591666,-0.21818244368359,0.944700723205313,0.0328915139065172,-0.0916543313304038,-0.0267832438638282,0.196427958762331,-0.453956378333545,-0.857069364983143
616,1095,0.233179912110466,-0.219036583814399,0.94444489929546,0.0315836390338361,-0.102027951963161,-0.0321576438343827,0.406415733288908,-0.323196395089512,-0.704538346989573
617,1096,0.233593531875378,-0.220250535805552,0.944201937865348,0.0338833475790241,-0.109061423564742,-0.0353441411587195,0.339919097889265,-0.296287467165896,-0.592485674376684
618,1097,0.234227685862524,-0.221233269994169,0.943965781559721,0.0400669551395754,-0.106844919491121,-0.0377610229800971,0.113083894503872,-0.260274138012338,-0.547840937017803
619,1098,0.235063644656045,-0.22226166167849,0.94373451905184,0.0489838201455552,-0.10154338575901,-0.0387706680087349,0.0273196008281062,-0.22413837532547,-0.462353780411138
620,1099,0.236033222274793,-0.223214494138089,0.943505761689174,0.0571645446659255,-0.0955036588653808,-0.0379203753956255,-0.0421190441973242,-0.123302219681345,-0.325045283381452
621,1100,0.237023520673917,-0.224169220309898,0.943278127856257,0.0631218082111842,-0.0904127728134532,-0.0356867617480058,-0.0578708075504678,0.079206479957711,-0.175569638073398
622,1101,0.237919577139126,-0.225062600485525,0.943145083769606,0.0665024377648621,-0.0848351824971531,-0.0317176228238095,-0.04339113910306,0.236501922006803,-0.0293727711749906
623,1102,0.238637703019445,-0.225887615765692,0.943033174407141,0.0651214602193647,-0.0805570355957212,-0.0249076846919532,-0.0573199240498955,0.455780388501366,0.27449276046789
624,1103,0.23915434293633,-0.226578317235969,0.942987254977126,0.0621267364296398,-0.0745715881226503,-0.0179869196416636,-0.13343130340289,0.53971494940418,0.480190920323461
625,1104,0.239503501830341,-0.22722390427363,0.943025221710274,0.0572483643718028,-0.0695390888813917,-0.00786139357816149,-0.132067566592334,0.681856992829908,0.810976859686432
626,1105,0.2397215688706,-0.227924601551532,0.943204768856354,0.0490247810730068,-0.0668764489010175,0.00552481551261605,-0.154272391130635,0.69970378067133,1.04351409734822
627,1106,0.239853160277335,-0.228501407813654,0.943528051249742,0.0424033085881529,-0.0614063567479161,0.0164167285192433,-0.00967950164164247,1.11400210121258,0.824960426431146
628,1107,0.239932628912962,-0.229087948904604,0.943935696232244,0.0334761488984753,-0.0601827769306943,0.0261606347320158,-0.273339993096836,0.757851316601938,0.73690151747166
629,1108,0.239990801843779,-0.229715471046828,0.944372663504548,0.0274619191859896,-0.057780791828075,0.0315989522236871,-0.269430408668652,0.748222651762379,0.406806913138616
630,1109,0.240068941264474,-0.230307452973152,0.944738083015389,0.0234729265527786,-0.054172070309297,0.0326933406251249,-0.328936134738544,0.62690380805886,0.110576653884279
631,1110,0.240201806290164,-0.230881048048695,0.945101030013182,0.0208807455194469,-0.0523346413719451,0.0323112704876094,-0.336705262541966,0.449346889749876,-0.0256773896630999
632,1111,0.240323714945359,-0.23146108791541,0.945401629029198,0.0154758744131413,-0.0522698611407821,0.0323396700847111,-0.325633743167541,0.242259498692681,-0.0625660875115398
633,1112,0.240396642821076,-0.232176350441512,0.945746997311668,0.00799477220872443,-0.0569031382409122,0.0333742470222076,-0.329457726217603,0.124604164767517,-0.0327248283604833
634,1113,0.240531337583827,-0.233257402955245,0.945869941035625,0.00115753689634083,-0.0677234487730613,0.032956917366259,-0.216403782610387,0.0709999969759879,0.235301024924664
635,1114,0.24066875787783,-0.233725461631803,0.945989854597069,-0.00136474340433737,-0.0699895677923861,0.0361555532398225,-0.0360207270331566,0.188986335437877,0.446800154768009
636,1115,0.241006349829428,-0.2348730079779,0.946084132823381,0.00253721706563133,-0.0787188910870556,0.037455439431256,0.0719835237329781,-0.0621364801209946,0.416094215157387
637,1116,0.241521103951543,-0.235716867227595,0.946143140804265,0.0126907790305884,-0.0800864433430985,0.0357259974627252,0.142781004205603,-0.125727810468196,0.263710269411366
638,1117,0.24220974864092,-0.236635226825756,0.946155599150256,0.0256613746290489,-0.0793079480264607,0.0316905381535525,0.0100795053731734,-0.190705796641565,0.114984024500894
639,1118,0.242967062901512,-0.237366384028016,0.946121848068109,0.0373618562779182,-0.0773803122423577,0.0265840713510803,-0.026011325683136,-0.170236780552026,0.0017333743163184
640,1119,0.243687630903445,-0.2380143929902,0.946054789392149,0.0446932232902769,-0.0731551205533775,0.0212748898862839,0.0128833686571962,-0.177713944859938,-0.0672925671996377
641,1120,0.24433926190465,-0.238465385539584,0.945958868522137,0.0483425731310908,-0.0663021797200849,0.0164730841083255,0.01141756149401,-0.185639366502978,-0.0564981943011282
642,1121,0.24490589136316,-0.238720413529342,0.945843968925897,0.0491693691831048,-0.0564134517422227,0.0121649493446091,0.000688394269883563,-0.113062525510735,-0.0338210096143674
643,1122,0.245372927589943,-0.238771980771316,0.945726099232076,0.0473076801462238,-0.0445912023186417,0.00986674901727149,0.0593308084903675,0.0686462369579613,0.105694940840052
644,1123,0.245762849848113,-0.238657455918625,0.94561836481602,0.0446521710613749,-0.0320618714864769,0.00839442358627887,0.0947794287338394,0.230169136128965,0.172668658531703
645,1124,0.246120612246204,-0.238380945941677,0.945521995175066,0.0425743422164905,-0.0172255233516676,0.00700514916718006,0.00766762332799791,0.312234069478054,0.186514505519031
646,1125,0.246490558395732,-0.237979186925667,0.945430925885265,0.0425970993998035,-0.00146451690487428,0.00479592087740935,-0.0246896751036139,0.377886486285093,0.117372620306082
647,1126,0.246915045868919,-0.237474467413243,0.945329817100153,0.045446323523278,0.0139474037341042,0.000532782451876064,-0.119024006365455,0.293620623030158,-0.0506215585500433
648,1127,0.247407944562855,-0.236936171537755,0.945209297240576,0.0494114770121171,0.0260503829783439,-0.00469253450077515,-0.168046363493776,0.282059617594218,-0.163720133949528
649,1128,0.247946158875503,-0.236403823211956,0.945072930879513,0.0530975941034511,0.0345385798403925,-0.00981326517591428,-0.119274740756676,0.229124351719996,-0.214706584431022
650,1129,0.248500739143317,-0.235919238798112,0.944929632736904,0.0550522813913331,0.0390765439950028,-0.0144047988760141,-0.0336174916422278,0.183141332753582,-0.240503863643669
651,1130,0.249061909582071,-0.235500999297849,0.944786796081028,0.0561237186581933,0.0415941615420834,-0.0184898505018196,0.0285686086708329,0.127198743518173,-0.266612462424136
652,1131,0.249636109843627,-0.235170446208363,0.94465390825897,0.0567218038778702,0.0417821017280216,-0.0215525799780961,0.104395945576718,0.117959414899467,-0.240180365861624
653,1132,0.250225476466819,-0.234916496889682,0.944536831958036,0.0576232013404522,0.0415755966986859,-0.024575428412697,0.0952918492884247,0.143477449632008,-0.284433281738507
654,1133,0.250827030869001,-0.23476634677328,0.944440022161964,0.057819942943893,0.0386189385135422,-0.0267459293524957,0.0784294459311993,0.150770037095549,-0.277283419377334
655,1134,0.251438851847578,-0.234695581131589,0.944366964832473,0.0586473657582823,0.0353006632645053,-0.0285783470483183,0.0551175825638997,0.132912089528658,-0.291151490125704
656,1135,0.252030817526049,-0.234708097801514,0.944323967829991,0.057849117240463,0.0303671054680164,-0.0298119493111598,0.00480496285803389,0.174270264645798,-0.307682538649828
657,1136,0.25258903332802,-0.23479415896697,0.94431119882067,0.0572322485240675,0.0252119111181694,-0.0310234779580929,-0.0174328948568337,0.183283078852275,-0.346725294621886
658,1137,0.253117234560691,-0.234915637096576,0.944334715613831,0.0555513613754318,0.0194929372698532,-0.031121984360007,0.000216073609544602,0.170241841317496,-0.325754934924491
659,1138,0.253585776552132,-0.235158975136697,0.944410496904073,0.0537821271356998,0.0138485966699096,-0.0308133494508698,0.0166575915650953,0.208277489291187,-0.322593418214233
660,1139,0.254008852394789,-0.235465743228791,0.944512750481139,0.0512723948439689,0.00780502151725054,-0.0302368792779294,0.0080725168519511,0.153955187402639,-0.355361129215543
661,1140,0.254399241464447,-0.235855700771379,0.944653412414643,0.0489978717786757,0.00153562096976644,-0.0289932566210464,0.0137965957597068,0.166023357422663,-0.34232496512079
662,1141,0.254751228815639,-0.23633007749014,0.944833732934256,0.0461224123467631,-0.00544419974132391,-0.0272687817457423,0.0309280851977827,0.118538300750068,-0.336469308171489
663,1142,0.255057229156027,-0.236885089128998,0.945051307918346,0.042724085718551,-0.0131583146681344,-0.0254396086370488,0.0269644131179567,0.0933967440625415,-0.358205373558914
664,1143,0.255315119878286,-0.237510741408985,0.945303249984343,0.0388620332920145,-0.0199343667021225,-0.0230284077753556,0.013161841780709,0.123251643168398,-0.337730003664404
665,1144,0.255523233293262,-0.238198766469522,0.945583347046156,0.0350008172011235,-0.0266894040413627,-0.0209586085434806,-0.0668514540087829,0.164329301595321,-0.380390407316391
666,1145,0.255661415429731,-0.238948154678842,0.945887515904,0.0302465765879414,-0.0332958628925735,-0.0180418098694127,-0.0720865430807924,0.181445258519592,-0.326511339420724
667,1146,0.255717905264745,-0.239754729004779,0.946213252526226,0.0244979107824639,-0.0398310895952414,-0.0150301404969602,-0.129469522858252,0.228924129385499,-0.319693057059078
668,1147,0.255668317588187,-0.240611832369001,0.946553444711095,0.0179643539042983,-0.0468245119750572,-0.0121540341209828,-0.153748474651873,0.264725976391757,-0.325657365555689
669,1148,0.255504091438822,-0.241500970486669,0.946899508909708,0.0101962650407696,-0.0529738901233162,-0.00886763931843458,-0.11823061429188,0.281442424289504,-0.285481352002939
670,1149,0.255223198822965,-0.242401385737412,0.947239462428662,0.00297497744470022,-0.0581168516574335,-0.00644906741125562,-0.159629237621367,0.226020147568475,-0.315685616041377
671,1150,0.254836149897534,-0.243300623516241,0.947561760331722,-0.00294384251268642,-0.061360239070242,-0.00436898630225457,-0.178495980679361,0.174190655761768,-0.28939906215442
672,1151,0.254320520028817,-0.244189782058525,0.947866049523379,-0.0116659245461331,-0.0644074618812943,-0.00127626953192494,-0.125796924412102,0.14223609230428,-0.190249293768397
673,1152,0.253691251246325,-0.245058977037357,0.948151289264771,-0.0209811285533241,-0.0679248148625627,0.00245142248835447,-0.0566290601937634,0.120541690748455,-0.0812903366746789
674,1153,0.252967418799979,-0.245880854732515,0.948419097766282,-0.0312049624239678,-0.0698421428049652,0.00689892596132156,-0.0487276778253542,0.10323260080622,0.0350142345832173
675,1154,0.252166036604311,-0.246635327387363,0.948671660639349,-0.0409264787599284,-0.0697006475434022,0.0118569352767304,-0.0423963071174606,0.0672977872137241,0.147783260808242
