,Frame,CoM pos x,CoM pos y,CoM pos z,CoM vel x,CoM vel y,CoM vel z,CoM acc x,CoM acc y,CoM acc z
0,653,0.338931578044021,-0.0320376903829971,0.962155700853753,0.299428857878353,0.285421432341677,0.00839277222162064,0.118927340623984,0.120476113064951,0.383428837767318
1,654,0.339886459059176,-0.0306522243482379,0.962080536100365,0.273394363122635,0.267095296464609,0.00911748408334018,0.159334836157283,0.185187066384714,0.222011499666859
2,655,0.340795691406335,-0.0293018811060403,0.961993370901214,0.251841713685362,0.250927836788467,0.00789388809284629,0.0785445686452304,0.184374956460995,0.0564503315994313
3,656,0.341436328635427,-0.0283017222049095,0.962868229502229,0.226469877225005,0.228151062614544,0.0126967544205007,0.0393924035788224,0.14136404903274,-0.00909190266480217
4,657,0.3424033653764,-0.0270333233297916,0.962731208619866,0.212618256593443,0.213641044316851,0.0103685859307293,-0.0439000330082985,0.145032813088065,-0.0489081800757805
5,658,0.34410711808638,-0.0255415421252114,0.962708911145691,0.208547194078347,0.203879284638734,0.00892439065185275,0.05334316251922,0.0553102549242523,-0.0345281622801321
6,659,0.345343983045363,-0.0242807256031737,0.962704329936481,0.198761494215247,0.190842836243489,0.00875784450267586,0.138289971786545,0.0498138278153056,0.0683376656503281
7,660,0.346832461996988,-0.022972075646056,0.962707787819204,0.191902409905814,0.178952556073605,0.008984672011205,0.196482034898366,-0.0449543089068846,0.0981815018079734
8,661,0.34824810741588,-0.0217159518117853,0.962725686597809,0.183967410268791,0.168537840396026,0.0101579268555506,0.282383404575239,-0.0598860733660229,0.160215343078719
9,662,0.349726267489935,-0.0204459843886953,0.962757999884854,0.178796069926267,0.160245543614582,0.0111632533964928,0.302983933549899,-0.0802517291539439,0.143980612768901
10,663,0.351228566112499,-0.019161672030633,0.962801074122902,0.176596913059538,0.154949447148473,0.0118726792399848,0.252906455107096,-0.127431266555251,0.111070066952522
11,664,0.352790986227979,-0.0178411179222045,0.962847066183041,0.175850677466618,0.151505128545501,0.0123327561636355,0.271364600331769,-0.0925161578307324,0.0884174875299046
12,665,0.354408642669424,-0.0164773928082434,0.962889157654915,0.17756597426631,0.150595229896489,0.0124601498278299,0.350309664184054,-0.0425407658167298,0.0586920481777562
13,666,0.356121368731588,-0.0150662842436282,0.962915813732882,0.183089923412168,0.151999653223833,0.0109948741879267,0.331485548916853,-0.0339790044137259,-0.0696330304169584
14,667,0.357909889684508,-0.0136284370847783,0.962919437414535,0.189436517311165,0.152223223961205,0.00995111085039992,0.409819869724184,0.136789146069051,-0.0207167963159717
15,668,0.35975701787037,-0.0121357782939721,0.962905994869245,0.194782784883065,0.154739703585209,0.00910227005273683,0.431161562254989,0.0918332681696601,-0.000988895937476923
16,669,0.361622950757192,-0.0105930493841892,0.962877633750034,0.197662876863163,0.15748856510104,0.00781798407278596,0.391480798877983,0.112285336435551,-0.0242279781807095
17,670,0.363483737644458,-0.00898821439961994,0.962839310967822,0.197148199344281,0.158618867227104,0.007226925152808,0.433202610247013,0.100097625847847,0.0157123277890528
18,671,0.36529085525409,-0.00738490445012794,0.962794916090917,0.196147347440951,0.159515045404015,0.00735822013089257,0.453319010533627,0.163553317937126,0.081257152784282
19,672,0.367098471550975,-0.00574576726563598,0.962745559212421,0.196560025078552,0.161019266164302,0.00751704323074424,0.472042706392628,0.090370725321778,0.0986668055651399
20,673,0.368916528942343,-0.00409340235170246,0.962691929363765,0.196477565436839,0.161363921347165,0.00802133645704461,0.3420234985764,0.149848349675737,0.146194157195787
21,674,0.370732926252482,-0.00243565306700174,0.962638581803719,0.194348084287105,0.16119488318158,0.009369770618565,0.344869494408731,0.0629397488512978,0.209082975905209
22,675,0.372547438239182,-0.000785997875366693,0.962593579050927,0.192433143009487,0.161124300500864,0.0110925867550726,0.367112803117971,0.105678873178727,0.251616981397684
23,676,0.374396337406069,0.000859514838821762,0.962560967741754,0.193610670181104,0.161759071036796,0.0127240494594797,0.383290069717404,0.136264080338948,0.267619641002234
24,677,0.376338336551836,0.00251198067415628,0.962539606754478,0.199510101893352,0.163893826047691,0.0139840428504483,0.304475430849345,0.169752204048767,0.277634401408086
25,678,0.378365164841838,0.00420153169393692,0.962538073282143,0.205203083005781,0.168430796049278,0.0169171672576475,0.358785955990201,0.206465241517696,0.39924176708288
26,679,0.380425975839432,0.00594058161233671,0.962576244627165,0.205970092280089,0.17339178739959,0.0223387806143796,0.363334290975595,0.282239072282466,0.601301693030678
27,680,0.3824921063007,0.00775037051074626,0.962667517715425,0.205352140892401,0.179631670614815,0.0282217536586159,0.451666817916546,0.424164446809677,0.659881810619035
28,681,0.384512114017955,0.00965736614270349,0.962822252919785,0.199992205998284,0.187990218524462,0.0368448368892255,0.463165092715564,0.614294759070116,0.859110856882849
29,682,0.386458388365486,0.0116869881424984,0.963049757530345,0.191804806136791,0.197740112773595,0.0467756731926699,0.527179931777853,0.783443981379004,0.987187424329432
30,683,0.388389885152865,0.0139270091942113,0.963342015491275,0.189951094212068,0.212956936483775,0.0545640565205626,0.508714921948845,0.632627407396035,0.885405237630851
31,684,0.390373599527451,0.0164269240398536,0.963680439388602,0.192513622667425,0.2323025598126,0.0606027403704844,0.26462954041273,0.311959420292785,0.796425647048218
32,685,0.392398258745122,0.0191415753603882,0.964052388488161,0.194433796136543,0.249187483255278,0.0647856717642528,0.243264250856027,0.186454518583835,0.658336672054805
33,686,0.394413183161443,0.0219980827058006,0.964452840095067,0.192065768197409,0.260058304890811,0.0665609303766228,0.214189585177086,0.131354095680029,0.462394353758875
34,687,0.39636321117615,0.0247564580807211,0.964879490322831,0.184538811356402,0.25632305017799,0.0660817852500486,0.0852316019733481,-0.389913758150477,0.224784348970856
35,688,0.398315213232941,0.0271044191520632,0.96530036994945,0.179175804738869,0.243923556040423,0.0591065703756279,0.00814114604334001,-0.726740616839255,-0.347101592264929
36,689,0.400395320419553,0.0291531279574572,0.965687643846381,0.184576394558094,0.239310481854137,0.0511207812309566,-0.247481009495293,0.182414680552836,-0.484920139316303
37,690,0.402676265390487,0.0312329076508,0.9660499584349,0.198215735681398,0.239961763188915,0.0424064404732023,-0.397530039581169,0.224519952182911,-0.579463356086969
38,691,0.405158798938593,0.0333727243998482,0.966393951887798,0.214671890653196,0.241352165558987,0.0332451419069332,-0.471744401299431,0.175371765664639,-0.652110949007951
39,692,0.407808109189096,0.0354587913551574,0.9676221409187,0.228002292655991,0.236435010749733,0.0289514631779879,-0.634806093335815,0.00863660271390878,-0.660937276465778
40,693,0.409863932417742,0.0346607902473854,0.968567521678671,0.225787994121859,0.176082917418738,0.0244417833634617,-0.632615863324616,-0.231762178591652,-0.652789608586987
41,694,0.411779520090313,0.0328109476279774,0.969417464541644,0.218959922207729,0.100650436773084,0.0190945796104587,-0.605534108166348,-0.574563073367979,-0.757805281410253
42,695,0.413634054985919,0.0304098771336112,0.970214742117928,0.213630009550338,0.0296613355614733,0.0154853519665492,-0.487867868526831,-0.635236330190263,-0.649169320322603
43,696,0.415436727856849,0.0277923846875216,0.970949834508279,0.207086888782063,-0.0361060478733281,0.0131815649248843,-0.322230782421185,-0.944644746357689,-0.548659007543576
44,697,0.417204903520048,0.0251903905019079,0.97159382889885,0.201203631443461,-0.0918487531817991,0.0120028257375722,-0.258445568632494,-0.915515000238034,-0.422988950353888
45,698,0.41892859001581,0.022927853330899,0.97214727592265,0.193056121266547,-0.128429578603355,0.0127168291583684,-0.221932678299689,-0.71646565681889,-0.253303087008212
46,699,0.420627472438004,0.0212164427642563,0.972618030493395,0.184603929356291,-0.148643376333583,0.0132283274803244,-0.104804793488488,-0.780815347764018,-0.181066782086926
47,700,0.422349336024992,0.0201605016484764,0.973015994069463,0.179919225059856,-0.151662072643672,0.0143930082697918,0.0945144103750799,-0.541075889131379,-0.0125970355559657
48,701,0.42417085054301,0.0198049002862468,0.973348311734625,0.181275041626563,-0.138047555052143,0.0144125874064449,0.135399561806584,-0.455098919099708,0.0329875304002999
49,702,0.426047161886019,0.020177136098099,0.973626655194989,0.180912870742422,-0.112226132371606,0.015116570311005,0.102644778032693,-0.179174976508303,0.103844852501849
50,703,0.427912955369637,0.0212186134325415,0.973863634611446,0.174421294562531,-0.0788443858404325,0.015845413279788,0.0295159507022859,0.0861434462583566,0.0864158304504404
51,704,0.429752152725239,0.0228613245044695,0.974059432580658,0.167311023824568,-0.041325366999829,0.015353203664535,-0.0327820050638238,0.179638958838942,0.000943419864822169
52,705,0.431596472046288,0.0249600471271233,0.974202204815861,0.162350292436358,-0.00233163069110296,0.0117476816504226,-0.20996101903575,0.183806792617199,-0.234445816119855
53,706,0.433465753251207,0.0273212220556571,0.974337204612935,0.163216989099082,0.0343777264120191,0.00584912393807558,-0.362208126770326,0.40477038897005,-0.43586398628188
54,707,0.43533875219804,0.030009346366112,0.974494899198187,0.169742522194841,0.0721583983203303,-0.00162044167065428,-0.433605494970361,0.280819434115703,-0.568628746202137
55,708,0.437175742222674,0.0328963190481943,0.9745894673101,0.176468181410942,0.103452839425522,-0.00921933175672744,-0.36923054198816,0.181595165387396,-0.622529704902554
56,709,0.438961191917933,0.0361147202731621,0.974632414211171,0.183130462734848,0.129426950886292,-0.0165919738643314,-0.231093462693985,-0.0402330678393979,-0.651169200567483
57,710,0.440699395223432,0.0394362919208357,0.974644846655306,0.18612265823773,0.151059189613682,-0.023710145596049,-0.0180739633068132,-0.20692283411152,-0.774251664767623
58,711,0.442424052774085,0.0427667763085537,0.974600467892527,0.188248701010332,0.1715346555605,-0.0304618313003489,0.0672872828875758,0.013958177410684,-0.844739395228763
59,712,0.444176414138343,0.0460852659366166,0.974504748739093,0.191670909805998,0.186189855636838,-0.0375839595062003,0.0271296759215323,-0.468203580692579,-0.921719482297461
60,713,0.445919882276634,0.0492512702941893,0.974358867977952,0.192362364039216,0.193563710304489,-0.0433458323983531,-0.0125335471990413,-0.519541387912569,-0.88991518993627
61,714,0.447599416815324,0.0522016133402717,0.97416994052476,0.187360758967896,0.195339445530215,-0.0482143880772214,0.120368535948902,-0.592235242650067,-0.860337220183539
62,715,0.449261932096736,0.0548636268916666,0.973937594901399,0.181907218341696,0.191115055868743,-0.0528540560660523,0.195124937423373,-0.452713690609048,-0.863222377261443
63,716,0.450972943790478,0.0571883952813153,0.973660616219279,0.177019576574888,0.182856784609475,-0.0579451634241602,0.0961532708344254,-0.504790274700247,-0.872927162654054
64,717,0.452746519636354,0.0591089700308644,0.973352556690322,0.169955978962637,0.169390837957037,-0.0591406208816228,-0.104666769986518,-0.371258082574564,-0.523049902573853
65,718,0.454538996592791,0.0606118724783491,0.973051238693121,0.157652069589188,0.150368099993512,-0.0542002527418503,-0.470468393278485,-0.300994184604593,0.150964322428284
66,719,0.456271016846183,0.0616996217791954,0.972811215878047,0.140487665602674,0.12851224547122,-0.0405848525054048,-0.602950094580776,-0.372288596354217,1.00112023778651
67,720,0.457876466231312,0.0624236628030316,0.972696081963352,0.129395868441384,0.109574130496019,-0.0230009201061958,0.36976746071094,-0.509322615592988,1.160504453856
68,721,0.459469125543088,0.0629925178200726,0.972679603352302,0.131194630551191,0.108075928940431,-0.0105456787753082,0.887423267232089,-0.13884893578189,0.544417307980676
69,722,0.461227481163126,0.0636278321703114,0.972684816088354,0.144850657072702,0.117344316931289,-0.00669565675937646,0.77571879365822,0.247138124440575,-0.039545974805143
70,723,0.46320506505435,0.064346426149613,0.972634887114056,0.16297855149391,0.125842674466687,-0.0103708943990754,0.270666359475377,0.651290089965649,-0.387902298240208
71,724,0.465403872557157,0.06511545408164,0.972465067744699,0.177923283987509,0.130022697140249,-0.0233002714850082,-0.598075059816463,0.705870255606173,-0.920281410284482
72,725,0.467809878677634,0.0658760406828308,0.972153795240742,0.1937165414159,0.130898753997568,-0.0366212322398947,-0.762441839689964,0.795064335520496,-0.810033704590201
73,726,0.470424620325689,0.0667517076774829,0.971763118605814,0.210045711869937,0.135745286444501,-0.0448519141626232,-0.896763239565772,0.49124963887842,-0.365171516862545
74,727,0.473007449274433,0.0677936233149492,0.971389239394397,0.217351162425328,0.142278661649006,-0.0376704969376587,-0.21538631373344,0.0402020960762352,0.768126716944963
75,728,0.475331595103971,0.0689329498678595,0.971160391042213,0.20629633380928,0.148203943681995,-0.0155572541804084,0.353132591358574,-0.0281549685694629,1.72481532118692
76,729,0.477356483818851,0.0699887105250349,0.971109814707852,0.182228454991657,0.146635107356924,0.00420268123028903,-0.109302741899936,0.147577078075807,1.51605199990609
77,730,0.479110740015389,0.0708460407632573,0.971157124599912,0.160729311025042,0.140318791292258,0.0155338380990618,-0.269778508855613,0.612562393380873,1.05466679333676
78,731,0.480558720530998,0.0716219026334021,0.971298938267848,0.152375877707567,0.126788123568478,0.0239888865911568,0.0824406665127649,-0.452553584411895,0.848884128651029
79,732,0.482404940790986,0.0723074987242407,0.971505957746682,0.162636569231089,0.109227958896511,0.0327674654839402,0.228631358071296,-1.09832847211652,0.838811842486593
80,733,0.484311915987614,0.0727890009280619,0.97175437243893,0.171831293494154,0.0949461271259016,0.041359786356601,-0.158038356398085,-0.953937573019357,0.786379026662506
81,734,0.487432673686528,0.0738373595280547,0.971958979325339,0.185125946693746,0.0891687943718123,0.04593112913337,-0.412087741923021,-0.643132699415527,0.524695777654901
82,735,0.489198912844159,0.0740474452340893,0.972109226257919,0.183007674553233,0.0750524822926747,0.046565034875218,-0.609665855156753,-0.60244393701593,0.319343238029229
83,736,0.491066264959607,0.0742443804503296,0.972175091076078,0.181090616324927,0.0601570770718314,0.0425529553879318,-0.683003172384815,-0.495060595674436,0.0535588850937753
84,737,0.49244215971243,0.0741925062828219,0.972127683118058,0.174288036863914,0.0441171643037911,0.0318196990957185,-0.749133719887607,-0.298415177620839,-0.427496252524444
85,738,0.493753484549001,0.0741083220868975,0.971961043038732,0.167847555919883,0.0268513452279953,0.0188898933235873,-0.631106083711024,-0.319204112515399,-0.636398906401725
86,739,0.495056837190161,0.0739385506379769,0.971691593765722,0.16111516041222,0.0123753944498196,0.00645251185157792,-0.488807321236146,-0.264529685549118,-0.672492635756964
87,740,0.496575666995566,0.0736393782305365,0.971343014302532,0.156656894427426,-0.00116729120584695,-0.00413522709310915,-0.42455640422256,-0.0967761471055334,-0.604169953202347
88,741,0.498366339902108,0.0732073051204356,0.970936514481255,0.15674487676208,-0.0117666814816233,-0.0142554443268111,-0.507826741606495,-0.0185206356065735,-0.608064978996767
89,742,0.500415701172654,0.0727305690707163,0.970492607698868,0.163014781564891,-0.0169372509771096,-0.0233348390239066,-0.57312421442589,0.0941952489483959,-0.533688610100919
90,743,0.502630498833098,0.0723877386094603,0.970096583119991,0.171853736380977,-0.0175046401167606,-0.0287123863772846,-0.3969518404058,0.245683008081982,-0.344986141572684
91,744,0.504840731632974,0.0723104372252831,0.969738901909211,0.176671201614457,-0.0151520494541996,-0.0291291260289763,-0.0763978826651527,0.312366610086705,-0.0679644553633492
92,745,0.506889597094473,0.0724751201382975,0.969481208930086,0.174204875702702,-0.0138151472686309,-0.0236674634489896,0.227456877631175,0.0681144517974235,0.259192667385173
93,746,0.508728194219565,0.0728594485246891,0.969345028342315,0.166945849224166,-0.0101418878106838,-0.0154204253385535,0.319458259223266,-0.0462152289155953,0.426340409740258
94,747,0.510353755200662,0.073391065406764,0.969320667985774,0.159842310234447,-0.00407620767600239,-0.00662249724441128,0.321664234000262,-0.0114665830388237,0.485177737195026
95,748,0.511801609780599,0.0739815507169361,0.969385454608407,0.153276402772537,0.00206323842912179,0.00195894695605184,0.305833042230855,-0.288507236319076,0.487636557167351
96,749,0.51307589299946,0.074468133281463,0.969562748280269,0.144790892721604,0.00512092912396717,0.00984955659845089,0.271371728519132,-0.256226096745369,0.428499812509861
97,750,0.514230124049317,0.0747418093422872,0.969862163750354,0.134459253891403,0.00470809387418907,0.0160624135646705,0.241692962234943,-0.141930853790686,0.300502467332528
98,751,0.515143922391302,0.0749641804383446,0.970252289503372,0.123720451253346,0.00698332265758327,0.0211562774926605,0.163401546339402,-0.0509897571087772,0.213680609197073
99,752,0.515993667792504,0.0750734069345302,0.970698087265946,0.115740017939065,0.00809925324059702,0.0240689622644291,0.022585965448551,-0.111726698502297,0.0589466543303749
100,753,0.516753871674444,0.0751760389562727,0.971171044354937,0.107634615358911,0.0109420454337706,0.0235457675942244,-0.080149238666882,-0.0337747424160312,-0.219269271537938
101,754,0.517482130946117,0.0751865483273952,0.971649945698937,0.101186166254068,0.00951227479896462,0.0240340576922229,-0.0816941081553538,-0.235765699944062,-0.166194376430293
102,755,0.518221101912256,0.0749891722436049,0.972115764338058,0.0972023171733445,0.00261912603626201,0.0246580702207554,-0.117547081028969,-0.406590883872092,-0.151711316788159
103,756,0.518987809562182,0.0745849544495949,0.972557335382106,0.0952685382932799,-0.00429802627217966,0.0242609951723905,-0.053434483585112,-0.0434372540748514,-0.198795199757841
104,757,0.51976938322582,0.0740505766883533,0.972969431930732,0.0935728847219308,-0.013454378153924,0.0231829333665072,-0.0689643304969222,-0.0182304451244037,-0.237483573070043
105,758,0.520568872580887,0.0733852537473646,0.973341406870627,0.0917918637414108,-0.0242188611128543,0.0216666675781836,-0.00411010861151977,0.0797149987599617,-0.266232841962058
106,759,0.521377792056029,0.0726094921330172,0.973664672737437,0.0902996512562399,-0.034961154502056,0.0191631305025932,-0.190512452992547,-0.0527901930722728,-0.310312506652186
107,760,0.522150084132729,0.0717407984810824,0.97395150574183,0.0870146110513277,-0.0460168513846618,0.0181550667323741,-0.138063965979154,0.0598940864463774,-0.179697681521242
108,761,0.522819890939937,0.0708583774199879,0.974217988728044,0.0792341724651607,-0.0550650295544743,0.0182924905077224,-0.0459003366375832,0.125103069004395,-0.0894142648780603
109,762,0.523365622438067,0.0700386342024365,0.974466293625381,0.0690540550907454,-0.0599749822278868,0.0182231940331613,0.000297068484126103,0.212266933330944,-0.0855628682218037
110,763,0.523816789268849,0.0693185320828143,0.974696257848037,0.0600309216864499,-0.0630872360489963,0.0176039852377771,0.0441176174908902,0.244334862508543,-0.109208448947252
111,764,0.524268464081802,0.0688115602478625,0.974893136774265,0.0559332183682294,-0.057278765672487,0.0146043757185283,-0.0800395799598115,0.238558185129496,-0.255873538746055
112,765,0.524741553166371,0.0687197376708064,0.975049750584205,0.0555307996483965,-0.0440547751523124,0.0115087795928651,-0.155165893758595,0.25018905841913,-0.236466164523472
113,766,0.525242981306532,0.0691670809221991,0.97517429433224,0.057546056502529,-0.0219863231139129,0.00891318735302914,-0.166955259976143,0.334713922796543,-0.170179443829184
114,767,0.525800705302278,0.0700045914591572,0.975281735789612,0.0594225203031166,0.00270414387356071,0.00753076631825168,-0.218991516005905,0.148464527304951,-0.0976980388230095
115,768,0.526448221437181,0.0710120687048891,0.975378958869215,0.0615580308512884,0.0273831725055065,0.00642102465375834,-0.103073406981799,0.152356843944152,-0.0973468270384057
116,769,0.527226142164879,0.0720268243466797,0.975469242349507,0.0633621357602981,0.0478465511500718,0.00772951101951197,0.0634548902781176,0.0106884411343953,0.0530313006239682
117,770,0.528139817892143,0.0729127375315784,0.975553259969737,0.0612978990879668,0.0604251015661608,0.0109819918000981,0.0353327753289441,0.0872416903048307,0.223572268153956
118,771,0.52898510990744,0.0736574511179591,0.97564448604704,0.0578619878037701,0.0691635847127244,0.0140254200061334,0.191384179966542,0.0266735363303393,0.2146058338314
119,772,0.529866488593744,0.0742209899964235,0.97573234037854,0.056578215398129,0.0722924904126541,0.0169847196923353,0.238257985034095,0.0242415102813275,0.255765714178436
120,773,0.530789372708452,0.0746779379384073,0.975806218395337,0.0583131185953505,0.0718244826519882,0.0177110079050181,0.0560595581102624,-0.0132922787163814,0.150245027733455
121,774,0.531797046984727,0.0750279129669782,0.975855455970636,0.0633569589910267,0.0671887080033061,0.0180684077437508,0.0416010903521196,-0.138585240427364,0.155795187572679
122,775,0.532874633145586,0.075283796020472,0.975875506302407,0.0699472341340318,0.0599749946732099,0.0173397648018905,-0.0110690472862784,-0.193671612074726,0.108579139667227
123,776,0.534033479637913,0.0754362100017728,0.975861137398503,0.0785420521840544,0.0507638278387644,0.0154530501159574,0.0614190483991731,-0.224651498379927,0.0398813814588664
124,777,0.535277958806198,0.0754929797818495,0.975810871031171,0.0885807238504889,0.0409123975839813,0.0129409702160443,0.0842832578009658,-0.251209696815203,0.00220796953690183
125,778,0.536591587411336,0.0754276418341839,0.975721480419392,0.0984596467398697,0.0285919204334203,0.00951028846607298,0.108938498351711,-0.28230800041181,-0.055048272718058
126,779,0.537942890613778,0.0752589693465719,0.975593181813785,0.107374555554511,0.0177763764813292,0.00599538523479609,0.222763639338655,-0.360733283819315,-0.0929570182691954
127,780,0.539316822571155,0.0750221870226229,0.975431389565438,0.115461750386099,0.00822630802474329,0.00157165491677796,0.194533798739116,-0.181757926801623,-0.167880217087663
128,781,0.540673237304479,0.0747652514263775,0.975247186232402,0.121306803574628,0.000908918945984181,-0.00336117649554524,0.148727816353409,-0.177360818029852,-0.261452485096769
129,782,0.541970224858986,0.0744845875833058,0.975044776305663,0.123265596972516,-0.00573420161639292,-0.00827825540945838,0.131267133786107,-0.104983962394705,-0.313747479322028
130,783,0.543235976257534,0.0742420708794717,0.974826100813236,0.124892676563713,-0.00889528309885559,-0.0134175029401301,0.0867243931736676,-0.0233037112191906,-0.359224624568708
131,784,0.544478181154551,0.0740562159366777,0.974592656764317,0.126112176316042,-0.00979635434241165,-0.0185442408963924,0.0739222519157039,0.00571364329286485,-0.395814000548983
132,785,0.545712081017897,0.0738952314511308,0.974343594142265,0.127368366308721,-0.00904324042649033,-0.0231348553529399,0.0656254496461095,0.0172152340708431,-0.39804865139554
133,786,0.546942985380168,0.0737625835145845,0.974088560903496,0.126729210503144,-0.00778591598390109,-0.0261503696436931,0.184814438816829,0.175677338788999,-0.299401828577887
134,787,0.548176893807162,0.0737070960885256,0.973841753153403,0.125510936543713,-0.0050573231962272,-0.0281931143487455,0.215259249844712,0.246740385688267,-0.240247998235179
135,788,0.549407926444238,0.0737578091420533,0.973616276242952,0.123740554706276,-0.000842910301561352,-0.0281900891776137,0.22687647619006,0.327255554214932,-0.0855353595492117
136,789,0.550669460761311,0.0739003535029278,0.973414928239007,0.123989847593882,0.00496369694825688,-0.027336978887351,0.224375322551009,0.268737707478538,-0.0200418602254519
137,790,0.552036939698016,0.0741800273326065,0.973235277156684,0.124834699904619,0.0123538473300005,-0.0255690709004193,0.278746163205049,0.421579928576738,0.0687995241982626
138,791,0.553362355923801,0.0745749993861363,0.973086681176873,0.125095444025531,0.0205124696166727,-0.0226171117484863,0.221950790486195,0.419273591315257,0.168665476842786
139,792,0.554712913481478,0.0750987199688159,0.972956915560799,0.127260477378217,0.0290936044874699,-0.0199524371385478,0.228870937593321,0.314835181748068,0.157471740679862
140,793,0.556132039540973,0.0757341661295449,0.972824806167171,0.132366203118675,0.0392808421160063,-0.0184815333412581,0.232777735847674,0.328423410028805,0.0791635522684735
141,794,0.557579365734284,0.0765083450878301,0.972662123642183,0.136031160600384,0.0469747768672964,-0.0184862163643216,0.234000669756215,0.311566502317783,-0.027343320097861
142,795,0.559005024163678,0.0773250354141329,0.972428246020943,0.137561097843177,0.0551588346560223,-0.0192088765742315,0.174876066956801,0.180002238535947,-0.0886477355458078
143,796,0.560368646896747,0.0782111425289816,0.972149004868917,0.136939397530333,0.062600458019753,-0.0206131437559604,0.175530284241356,0.171793028487563,-0.136833794030274
144,797,0.561699726304445,0.0791569617904204,0.971870566077381,0.13788327768548,0.0696403734448693,-0.0229087798265712,0.135185976049207,0.146525836145889,-0.22524607580865
145,798,0.563018397589029,0.0801666823064858,0.971582219164899,0.139660395776672,0.0769224303615742,-0.0266337371810877,0.148514537070555,0.103497678769392,-0.368593745680893
146,799,0.564338630031632,0.0811909808893054,0.971338078062994,0.141247357236711,0.0823269657577094,-0.0299111033775357,0.216893718465164,0.11311556242418,-0.357401144509582
147,800,0.565599839927795,0.0822384941704055,0.971062586035704,0.141468086997235,0.0874863876317098,-0.0325579841362811,0.276629613889561,0.174396883919816,-0.313364670077798
148,801,0.566804504623683,0.0832615108171186,0.970774120550184,0.139570097372759,0.0902498883474517,-0.0346575503719776,0.306858201506064,0.320883542761769,-0.257002599274916
149,802,0.56796026659197,0.0843280194468793,0.970477078051944,0.137756483417357,0.0947108974437564,-0.0369581129015822,0.340426083676576,0.299642968534852,-0.296837684715432
150,803,0.569082608667138,0.0854284973772568,0.970171627200138,0.136671549722561,0.100118363719295,-0.0389473925846626,0.311550626617441,0.446920566892579,-0.262705281209539
151,804,0.570214221063019,0.0865960037184705,0.969976502204804,0.138022021611135,0.107375308326869,-0.0400341863520525,0.180206965361189,0.462253200755459,-0.267092625584695
152,805,0.571321340415138,0.0878185562375884,0.969842588917378,0.137717037780353,0.115288064596959,-0.0394996462594904,0.179848397781338,0.516480484493832,-0.179644669733843
153,806,0.572401096984453,0.0890886545892488,0.969725112551408,0.135196285965029,0.122281029784742,-0.0380245902958178,0.188196045117819,0.563203716172755,-0.104666079385167
154,807,0.573446619510427,0.0904326475115914,0.9696252544568,0.131957480341109,0.129013190140114,-0.0359807363133544,0.149582435162913,0.607161738943654,-0.0468789063022482
155,808,0.574474507009386,0.0918678223891953,0.969537594247752,0.127326637208793,0.136596457147229,-0.0332909948972829,0.197110836767596,0.561780081961615,0.0111279303214111
156,809,0.575492536585537,0.0933692935342145,0.969450658363067,0.122448468882088,0.143595104654957,-0.0311969393645657,0.20369280707436,0.530267827166344,-0.0142186327357828
157,810,0.576533880648866,0.0949456609184224,0.969355701492197,0.120202156976104,0.151004273917099,-0.0301644725342962,0.100715641717675,0.454527982214045,-0.0865125096724396
158,811,0.577667723126451,0.0965649545455695,0.969248180755218,0.118018125290841,0.155422589295025,-0.029351312783763,0.0780997057351798,0.387201911890425,-0.0786543532888787
159,812,0.578772860605964,0.0982036725926592,0.969132967846489,0.117282944560402,0.160042022175457,-0.0280639245657413,0.16618264505174,0.327241563049115,-0.0350560556959046
160,813,0.579910894626025,0.0999141538946311,0.969017649713531,0.117681740154367,0.165780964712549,-0.0271434869479805,0.129395615882529,0.25586741918627,-0.0626421240488287
161,814,0.581053258871457,0.101667387834427,0.968902478001965,0.118320607628053,0.170749632977553,-0.0260379059454148,0.122867722308702,0.232740426501282,-0.0315837219067033
162,815,0.582187577668542,0.103454133009805,0.968783589851663,0.118596937601461,0.175423872024153,-0.0247717735056674,0.124556335549634,0.22795686541514,-0.0101642256531908
163,816,0.583338406911369,0.105269199867131,0.968652233939036,0.119323316421159,0.180662279502416,-0.0231885437384603,0.123873664466568,0.233425316015878,0.0363331569088447
164,817,0.584520569492693,0.107118974426358,0.968501723386768,0.120987252363898,0.185006701995654,-0.022697166377144,0.126773043046303,0.280270233296093,-0.0167287132920333
165,818,0.585737558098296,0.109019432693312,0.968327382719249,0.122806715205229,0.189960518055689,-0.0225748360659784,0.0974277474520725,0.278571068764579,-0.0335274426244956
166,819,0.586988878631201,0.110929004791184,0.968125394354108,0.125691717748378,0.19185818342206,-0.0231951238616502,0.137300904270299,0.297096865994692,-0.0539200643701939
167,820,0.588298062376434,0.112822119253541,0.967895271217721,0.131120491147434,0.193338637875295,-0.0241080864435949,0.110024152054068,0.238081693328145,-0.0779053078228441
168,821,0.589639881321785,0.114687077849257,0.96764177112119,0.135689003940756,0.195062214211399,-0.0249105770714612,0.145125332869788,0.313919455830514,-0.0572487285980124
169,822,0.591020453438176,0.116489504797468,0.967370026360528,0.140696279589473,0.194932337325261,-0.0246773009841676,0.132177392330588,0.228833206591059,0.0365742992377721
170,823,0.592426293805928,0.118225984570237,0.967086311729735,0.144747016422475,0.195050175192666,-0.0237973112186339,0.139712240860301,0.292911665142577,0.111359936080773
171,824,0.59383491918313,0.119921849919136,0.966797985555151,0.146954820940888,0.195097290478066,-0.0224366938291323,0.200855494204422,0.327538260704558,0.179502954194098
172,825,0.595241823106708,0.121615794705487,0.966512739819403,0.148599056942509,0.195504263047971,-0.0199945792337444,0.190843563708597,0.331132965364252,0.287882507643775
173,826,0.596649710354493,0.123307029498556,0.966232859060087,0.148698977282334,0.195468315211033,-0.0171985512768261,0.146733717921219,0.361505556632064,0.353486092558533
174,827,0.598097078263345,0.125050159153901,0.965955207869811,0.149811716236943,0.198185631168142,-0.0149382993270289,0.161421806282651,0.364698048823441,0.302116055780725
175,828,0.599645102489665,0.126852880888544,0.965670169271876,0.154044282630551,0.200164242882551,-0.0133085285652548,0.119617336199106,0.38502019695482,0.26562424747145
176,829,0.60131189864917,0.128718683249526,0.965369428164027,0.159983479712555,0.202537073061215,-0.0131485522799123,0.0099089563654655,0.33417533073568,0.143258689804716
177,830,0.603159848653448,0.130604792720016,0.96504844510304,0.167889554443,0.203570111441465,-0.0132450688665159,0.0103976055501737,0.287759551398017,0.132272118223672
178,831,0.605056512804049,0.13247530508832,0.964705510065542,0.17571164454234,0.202569338007248,-0.0133145622279753,-0.0498006873457775,0.264325486303875,0.167825643078595
179,832,0.607028340388217,0.134366387617298,0.96435221913277,0.182806988318871,0.202443562226248,-0.0134590198327039,0.0355434887154771,0.250235979306228,0.180842336879118
180,833,0.609056405319673,0.136268140446631,0.963995570116042,0.188852770757018,0.201184568799108,-0.0127815041983551,0.0867823458799128,0.215029238984371,0.270660812426469
181,834,0.611108475439026,0.138186735350287,0.96364879011887,0.192728714240987,0.200804030885766,-0.010888097354024,0.124114625593299,0.201527346422758,0.389303694439568
182,835,0.613191626720867,0.140102937899582,0.963319318254053,0.197142568532127,0.199389813315093,-0.00885902309059746,0.0311612828156089,0.254023428140033,0.434254977253268
183,836,0.615403308742291,0.141904903473862,0.963093986491021,0.204861342138582,0.194847193601367,-0.00386668245678667,-0.0768811179582184,0.206110402479752,0.601867428030953
184,837,0.617263618115684,0.143706271960822,0.962902527196233,0.20909785531781,0.191280371670649,0.0015746645103497,-0.132898727234415,0.230499215770165,0.671217627923651
185,838,0.619760499902108,0.145314034266486,0.962955088265738,0.220077171807697,0.185581472013099,0.009276528074029,-0.043958055541526,0.197453739525697,0.797538629433825
186,839,0.622147208268801,0.146922967552695,0.963082662635721,0.230414009210454,0.179448456203081,0.0180362827906672,0.0575851443255173,0.140808739087645,0.926795387862211
187,840,0.624688579054425,0.148447836269879,0.963120331903454,0.239067157759731,0.172342670321635,0.0265120111520194,0.132384449473331,0.0174886691608182,0.99134523853364
188,841,0.627205206771175,0.149967616096075,0.963185073353624,0.245554285475093,0.167415952939403,0.0336550903574522,0.221514611038094,0.0966591290509388,0.91399177281299
189,842,0.629715880949757,0.151506405573558,0.963262146723314,0.24793437897068,0.164811628615457,0.0382036221111364,0.294879486609538,0.144889834006205,0.732396792311628
190,843,0.632216236156218,0.153142971400301,0.96333697735008,0.251670667413029,0.167936815887632,0.0393089407374852,0.212687977308539,0.143671206479126,0.408464167365539
191,844,0.634768936806742,0.154892919977682,0.96339257091809,0.256135291546619,0.175679157076046,0.0382122255792815,0.207753094798335,0.199475986491525,0.19560137540148
192,845,0.637405273418043,0.156756561231671,0.963425355030891,0.26230397995751,0.186222400916549,0.0353514860234658,0.0568395715510188,0.311926736020822,0.0114700241970531
193,846,0.640085936382522,0.158727255811961,0.963438725577271,0.265261509231656,0.19786766000909,0.0332351667794064,0.0705133126961224,0.440762558680723,0.0494903100725102
194,847,0.64277887731105,0.160785140122222,0.963443135226447,0.266644814997581,0.208778874740626,0.0316744896332456,0.0437717185016573,0.462623471665642,0.0823008023105304
195,848,0.645494634487667,0.162918563988903,0.963445354361719,0.267580927073317,0.217658574783025,0.0304700451321204,0.062407671929483,0.592500432492204,0.129868322344342
196,849,0.648290275180555,0.165148600322659,0.963446261294365,0.272414055515282,0.226314261692941,0.0284725746400649,0.0146048220499547,0.533077860939678,0.0451407874936415
197,850,0.651169152554246,0.167447106380857,0.963445896471625,0.27560597724388,0.233160183526832,0.027987517280149,0.0749835791390778,0.549435496142205,0.163706037741567
198,851,0.654079775251059,0.169776101456502,0.96344534549672,0.280325010799683,0.237597411036329,0.0272078964528162,0.0490108891752084,0.480210353518219,0.164509935191599
199,852,0.657005026634644,0.172133563851821,0.963447135327448,0.283489330668302,0.240369511442154,0.0269651937039236,0.130795338153577,0.315267328098741,0.195193874620245
200,853,0.659933945443652,0.174486498025995,0.963450169377294,0.286389668200486,0.239688123106684,0.0263784593148546,0.142965312232728,0.178737508961978,0.177348966950577
201,854,0.662866830427002,0.176839597493586,0.963455005480663,0.288721145000295,0.238723791447207,0.026540469762467,0.193657380365805,0.028971733497725,0.222884364104317
202,855,0.665822819249638,0.17920335280555,0.963462474169534,0.29150716011383,0.236920672808379,0.0267190697467785,0.257278573032859,-0.080156448232921,0.226956488202015
203,856,0.668823033541408,0.181570971930992,0.963471138660666,0.296322904391965,0.234602225615227,0.0263607949949446,0.344983142265997,-0.188659007271188,0.180688617214286
204,857,0.671864426209549,0.183944801619576,0.96347942585359,0.30169750945691,0.232409798479084,0.0258449862434955,0.393953596211695,-0.270521206754934,0.156331401819664
205,858,0.674957002294786,0.18631931534671,0.963486693341285,0.308197659850272,0.229952177848012,0.0247504878611548,0.381373029849206,-0.239460080202437,0.115718626350217
206,859,0.67811992942947,0.188719577654242,0.963489790316667,0.317273035498638,0.228364409720867,0.0227047876448148,0.373525937301332,-0.248246565534646,0.0350429015370914
207,860,0.681322937389437,0.191184985946753,0.963492649205556,0.323482849574927,0.230198441708727,0.021777787302499,0.452677518445493,-0.246341770052946,0.0824708944380823
208,861,0.684561634222811,0.193735287068649,0.963499962836127,0.327085312592054,0.234676576219995,0.0217807713949855,0.396613132690863,-0.140522879707246,0.160618967464881
209,862,0.687809349598813,0.196401031825259,0.963522378467911,0.327353491094611,0.242383514403309,0.0229354683379661,0.430567156116047,-0.116259099762085,0.246625375478797
210,863,0.691057326210507,0.199183972464309,0.963566284096232,0.326281808182816,0.25060209465905,0.0252015513109176,0.390143500391104,-0.113513290880116,0.344725584308947
211,864,0.69432850263439,0.202098689182903,0.96363225965669,0.328037635418628,0.261267842444539,0.0272393786514793,0.310794338968855,-0.0942616454457462,0.348519565912192
212,865,0.697667039138945,0.205131462751564,0.963713723131533,0.334520745945428,0.272362487506597,0.0289778239695237,0.174924373942665,-0.00416393677537254,0.361618567868544
213,866,0.70108252299109,0.208330067002436,0.963812496761339,0.341992134177683,0.287364216471849,0.0309804959972828,0.104028442122856,-0.127352969880705,0.397030163732295
214,867,0.704502188664042,0.211643189779644,0.963937156276084,0.342915740122314,0.298792579797251,0.0360387327538073,0.134147532935379,-0.150630861534301,0.672503544193415
215,868,0.707842928590871,0.214999389833379,0.964215901777581,0.337608921892367,0.308718046827961,0.0446804514902503,0.329241995170235,-0.226974928597585,0.908952441012933
216,869,0.711123349994604,0.218473035773566,0.964594241633548,0.329166974404086,0.31909608214017,0.0542925770278365,0.447024133669252,-0.230040865436251,1.0028330810608
217,870,0.714304153910375,0.221917357345722,0.965039348464342,0.317705489923583,0.327470110138116,0.0643719924803419,0.491505245880875,-0.074090135770029,1.06263980420184
218,871,0.717343070241242,0.225443754671333,0.965537741660159,0.307262429708123,0.337500676104232,0.0723092123566089,0.38477899502766,0.0289623885629884,0.92448827081514
219,872,0.720326584416771,0.229044891511884,0.966051729670432,0.302424339693135,0.347711166916996,0.0760452824331521,0.240635310667069,-0.00351100904202014,0.625321629251376
220,873,0.723301084444545,0.232712624017091,0.966544911054057,0.301631039914242,0.353829485254875,0.0751578699433769,0.105654734732384,0.0306775578566815,0.274101494347755
221,874,0.726274610447569,0.236471850457944,0.966993813772189,0.299857523357034,0.358311994385134,0.07063213602006,0.0860034263260323,0.151425086705909,-0.0518140585657278
222,875,0.729267593604951,0.240335239721933,0.967385860676104,0.296935857711149,0.359279308283429,0.0641074561412502,0.0203009077312788,0.100282312479184,-0.259979709420345
223,876,0.732309116051434,0.244267308517393,0.967717617914013,0.294805166898462,0.360224040030468,0.0550337693098268,-0.0182948092703705,0.0433579691635644,-0.514859630715845
224,877,0.735417905817013,0.248247927198525,0.967987538630475,0.293738053330619,0.360826056379546,0.04415987371775,-0.129710703837941,0.0314061129613246,-0.718164278980392
225,878,0.738646332448147,0.252256031158379,0.968194270720106,0.296304982138969,0.360999610164954,0.0306465860495415,-0.428222424738603,-0.0370103577612201,-0.954523502229752
226,879,0.741993993221313,0.256206241413594,0.9691277121066,0.303730082654786,0.360522324371904,0.0197394655457976,-0.575943571956322,-0.355481344037104,-1.112930588592
227,880,0.745360786213676,0.259812955055567,0.969898529079043,0.309519663250533,0.350794694217232,0.0107042163171447,-0.747993689285321,-0.616267201674705,-1.04324472038699
228,881,0.748290286156461,0.262340761207169,0.970585540431935,0.305022352189433,0.320752171312995,0.00269081086646909,-0.783436616794384,-0.742661505855545,-1.04377195366412
229,882,0.75042570095773,0.263421361210434,0.971188798264662,0.286006829139246,0.270876007713955,-0.00427854764182143,-0.802752251205622,-0.816254878187566,-1.02755315983923
230,883,0.751952749216362,0.26345364807766,0.971688515015388,0.261590096919307,0.213143511407436,-0.00958308086374461,-0.808723842797911,-0.719719396759076,-0.883870845711133
231,884,0.753229837783024,0.263068294890379,0.972088714233468,0.237330933926652,0.159972585008084,-0.0121637581847839,-0.681872646489141,-0.663142822664168,-0.642284545461204
232,885,0.754384203039758,0.26249692749426,0.972592111039253,0.214241454532806,0.113609717811736,-0.00913360688089948,-0.335644966752196,-0.536261363743337,-0.23571317952227
233,886,0.755597358982184,0.26201001520186,0.973086736370378,0.190413003354674,0.073495642955738,-0.00342456013326338,-0.0785779138147846,-0.453779820098206,-0.0416320724734914
234,887,0.756886569299885,0.261652997039355,0.973574205379769,0.167608771028923,0.0401722689318413,0.00117520763636389,0.0536736355795256,-0.260797796259446,-0.11321770560263
235,888,0.758317574416327,0.261556534382635,0.97402990979772,0.152234902576771,0.0177247643864168,0.00340760978116727,0.0576047051533849,-0.358801799520523,-0.177710686481474
236,889,0.759925137900735,0.261768538044669,0.97442427823743,0.146046498948419,0.00969266029490569,0.001445550966356,-0.111125453706278,-0.231315087045818,-0.422475156371389
237,890,0.761733465652053,0.262366188873558,0.97472852300361,0.143316848410932,0.0143420724358872,-0.00260135101619203,-0.364586271233964,-0.0125082388005258,-0.55830555586122
238,891,0.763645334893762,0.263375419886266,0.97493981392545,0.14278807046966,0.0299177850745893,-0.00806439560559257,-0.575698136531494,0.108622258225864,-0.606103717356126
239,892,0.765618841967857,0.264774634092698,0.97506789984289,0.141049716463139,0.0488913498952458,-0.0128166108105285,-0.495743983621446,0.255114575932992,-0.564990632939733
240,893,0.767640198283493,0.266524902059005,0.97512833676774,0.141723237821332,0.0694704821046496,-0.0167949978912322,-0.493178360925578,0.223590437543115,-0.483153303183245
241,894,0.769697726965941,0.268568569250798,0.975133028007616,0.1436919094729,0.0905465642664918,-0.0198346141766882,-0.453674311307917,0.339468120069974,-0.403942795578451
242,895,0.771849006847777,0.270852282087301,0.975080997508742,0.151313453325525,0.113109129512576,-0.023968934318691,-0.359959940164055,0.514057521769959,-0.443145936807355
243,896,0.774139013060396,0.273344783947665,0.974965011444222,0.164839200715124,0.136366354921435,-0.0301604141833547,-0.343602473132691,0.478526166307669,-0.557943353402547
244,897,0.776560068027941,0.275979533586475,0.974785357106675,0.182369569098999,0.156070963227349,-0.0370776713070079,-0.289528005784315,0.228383032430927,-0.634759068114627
245,898,0.779085047595371,0.278651627642647,0.974552869218805,0.200121710513366,0.171290145184182,-0.0432701375800557,-0.200231224276719,0.0294779617026434,-0.61920762114467
246,899,0.781692916074312,0.281265111687691,0.974280974143,0.2150008882906,0.18068029311758,-0.0492754637398665,-0.242915295450643,-0.135591684784998,-0.652719079877115
247,900,0.784339046626369,0.283751439618465,0.973978918557382,0.225485448725437,0.184724213536764,-0.0543827131903114,-0.177585637920513,-0.149028577245171,-0.647650432159081
248,901,0.786946872663069,0.286046945442537,0.973659721027575,0.230495527940899,0.182012937062089,-0.0578108408355177,-0.0871831221877618,-0.20871915015535,-0.601877915855309
249,902,0.789465685801268,0.288106064774792,0.973335028865409,0.231427046775861,0.172431895969554,-0.0598029665702493,0.0540726014739744,-0.31542530470459,-0.577342160260419
250,903,0.791926112414392,0.289914082080289,0.972997493743837,0.23199379157015,0.160303298472711,-0.0625505617783227,0.0741836475963413,-0.378228559379648,-0.623336210488106
251,904,0.794415441512353,0.291523691119689,0.972621056028306,0.238154465692466,0.14766573489039,-0.0676391860565456,0.0725479154881199,-0.353129265311314,-0.759853789769885
252,905,0.796979295798738,0.292986085325073,0.972196619493494,0.245068443795393,0.135315784580174,-0.0737359163947482,0.0588314295151848,-0.289478209993503,-0.853968138712243
253,906,0.799631147447876,0.29433506673178,0.971715141479223,0.2501238714352,0.124645044003659,-0.0792864080864736,0.00192955129516672,-0.136574176814917,-0.814837458429884
254,907,0.802341289658665,0.295586664213457,0.971180097424026,0.252459771351156,0.113727603448833,-0.0851675487892737,-0.113608652995844,-0.144002832988796,-0.860113109448117
255,908,0.805054858765975,0.296736919203485,0.970596097194956,0.252047750604853,0.102566835033532,-0.0895912306925431,-0.101745478785039,-0.167776718470383,-0.759038105202925
256,909,0.807759761477763,0.297754339761154,0.969972133449978,0.249673599408325,0.089470607701248,-0.0931138959096647,-0.276766245696716,-0.284434130193268,-0.614545273463829
257,910,0.810389067505096,0.298625926287951,0.969332588777792,0.243943475533729,0.0756255786629799,-0.0924692465037089,-0.0829798919394721,-0.478222351446941,-0.306781687258966
258,911,0.812936330297954,0.299362445969169,0.96868884582627,0.234594723756829,0.064226092471298,-0.0911619547579682,-0.0547238742787733,-0.447092143946356,-0.236445813553367
259,912,0.815319450382538,0.300014523460321,0.968022076261723,0.225246021985731,0.0574446438975006,-0.08896999201585,-0.074986658666869,-0.4156868911684,-0.177684941863645
260,913,0.817587761446976,0.300683411593231,0.967367025387155,0.21738282178092,0.0570053967976921,-0.0869640416044553,-0.0647387350595939,-0.44399191991102,-0.209181490080116
261,914,0.819816904413737,0.301352087696811,0.966718883673582,0.213569757047859,0.0610659640795834,-0.0866945348346075,-0.18650667579085,-0.123083252510026,-0.330829730468141
262,915,0.822138930413598,0.302100346392708,0.96610954965726,0.217458714046066,0.0666865330746046,-0.0862462045817181,-0.261733359356054,-0.442381133987658,-0.232772103961214
263,916,0.824480970323514,0.302874081584028,0.96551074126488,0.223345239818562,0.0760607904883304,-0.0814957495407878,-0.427857935102416,-0.0276579730406712,0.287241227642802
264,917,0.826855031104599,0.303632218445659,0.964994055021227,0.226974794916107,0.0867040089084701,-0.0671129503845382,-0.290354901573409,0.149620136452432,1.27661894071706
265,918,0.82920503300128,0.304309476079263,0.964628119254968,0.22330132140493,0.100253127347782,-0.0460478133838243,0.223093917606913,0.686623644335738,1.81611748912443
266,919,0.831430793483149,0.305025126208464,0.964482995531766,0.216921921390697,0.11986297728914,-0.0209046289715025,0.465211429334634,0.980232506036504,2.11689617378665
267,920,0.83361559539204,0.305872508155098,0.964530225617971,0.212863463352038,0.140962266464032,-0.000645744680085007,0.179650764838972,0.658990889320289,1.69043389182704
268,921,0.835687649669441,0.306904484606176,0.964691793051596,0.209763142855783,0.153327761234051,0.0116313058994138,-0.404074039350587,-0.122099129526657,1.1211216503902
269,922,0.837629450304178,0.307984638415605,0.964915147297497,0.198627028954993,0.149589159693814,0.0228034149003261,-0.563593699430606,-0.549155188495008,1.07258613036028
270,923,0.839268048481754,0.308971801706301,0.965168576184213,0.177898836897889,0.137889394276148,0.0327679825037164,-0.428050474816625,-0.585601036402169,1.03998791068586
271,924,0.840687780166005,0.309769321429558,0.965437482026302,0.158006827793785,0.122336317008955,0.0387833722636685,-0.413856004847542,-0.866173165902222,0.724539056758867
272,925,0.841790613151694,0.310784847859783,0.965702388307519,0.142566665594916,0.111647891060742,0.0431120685841327,-0.441863277501507,-1.43771314106452,0.534336348526801
273,926,0.844811662485802,0.312444898907207,0.966003759269446,0.160053642885556,0.106950900980844,0.0456161676807126,-0.379630182660642,-1.2868418024629,0.370473623104477
274,927,0.846036168629356,0.313515139710464,0.966293886146534,0.159555271353731,0.0936757429537067,0.0480364319204042,-0.428884754260048,-1.19487798437204,0.399871074124604
275,928,0.848070668698997,0.314296257952108,0.96655014179477,0.163599715845153,0.0750578665874646,0.0484021733346184,-0.487801146763386,-1.11493874769113,0.258048623646081
276,929,0.849833317470979,0.314577163468676,0.966734298274562,0.166330160704788,0.050774875120821,0.0462827259258337,-0.435485384423548,-1.05325567190275,0.130552761946595
277,930,0.851823206883629,0.314536258574387,0.966835550110662,0.174258452472437,0.0294040068358508,0.0419156092750097,-0.464510676291192,-0.923920646352816,0.0323644479898599
278,931,0.85371663952573,0.314135385693432,0.966885116067309,0.179916546955107,0.0103404210545415,0.0385075002766187,-0.487743287829725,-0.530527304952427,0.140002804554835
279,932,0.855596656222673,0.313635782320105,0.966925426422317,0.183355571415036,-0.0042642656461679,0.0352828277060105,-0.514779897341711,-0.263495989888105,0.170220225845131
280,933,0.857349329589212,0.313058578613068,0.96711922528976,0.179921738422012,-0.0170387066415649,0.034885758093803,-0.372936488436599,-0.141141411209462,0.247399841224843
281,934,0.858996414897872,0.312462944011762,0.967432757137888,0.172365499483217,-0.0275658716195379,0.0367048595645904,-0.241444604927348,-0.0487237377031216,0.340991981742515
282,935,0.860616736048302,0.31188554625095,0.967816586531328,0.165027323550773,-0.0347409034956871,0.0389511219748965,-0.231850931634393,-0.0167775341316929,0.345739507380425
283,936,0.862294291376783,0.311401647824645,0.968258840208943,0.162086448872933,-0.0381519105532194,0.0399036839508902,-0.204307938524492,0.101241904590841,0.231457455218672
284,937,0.864069934270569,0.311064136848218,0.968749501216988,0.162543909388695,-0.039055462156634,0.0401251994318698,-0.269421237927544,0.159368231426085,0.139635803887088
285,938,0.865888334110552,0.310881353571923,0.969286050692027,0.16270596956925,-0.0373213670550239,0.0406360213937186,-0.243989553413981,0.120295343137108,0.0554777066619013
286,939,0.867720560742309,0.310791305105197,0.96985075455147,0.162542917770936,-0.0354844108292966,0.0405768490175652,-0.292222790864473,0.0669128744900261,-0.0503280636162343
287,940,0.869517961161326,0.310732026573129,0.970422615105774,0.159081039102251,-0.0337374713102829,0.0401687520071329,-0.293987134529419,0.0979807819607444,-0.134295465507954
288,941,0.871257820211787,0.310645730099157,0.97098665009749,0.155165525687095,-0.0328686479153289,0.0407686115728767,-0.160003277856039,0.087766651972003,-0.07953004168809
289,942,0.872951542722349,0.310519120006992,0.971532792366295,0.15109275863843,-0.0302184004859128,0.0411299861348553,-0.110455125645928,0.296558348112395,-0.0781051293723163
290,943,0.874624829401085,0.310390649719327,0.972060924122325,0.148835288149987,-0.0252286600463493,0.0401387355351593,-0.0745385384085736,0.421193778042111,-0.16019399249886
291,944,0.876297769059496,0.310291638446366,0.972563996643083,0.148558511766085,-0.018876068720357,0.0385445926699079,-0.0836725298161935,0.370576858684025,-0.195679110188515
292,945,0.877982875720163,0.310232962607389,0.973052812712036,0.150153423517133,-0.0114600436489685,0.0371932546197451,-0.0022624910404864,0.336886999689735,-0.181566998180231
293,946,0.879655599400643,0.310216070592937,0.973540198587848,0.152120286643266,-0.00553236696614283,0.0368042441222006,0.0614171737914993,0.20426918883998,-0.103905295310896
294,947,0.881286763054807,0.310216722886152,0.974048596534514,0.152281539178967,-0.00185078819803507,0.0375637848823748,0.125534171132547,0.153768281652478,-0.0421974441145452
295,948,0.882832922938652,0.310269165629681,0.97459298014005,0.150864575312912,0.00122010289105079,0.0383955992661933,0.182609385970221,0.151100812324148,-0.0573100703441422
296,949,0.884245294356797,0.310420576907728,0.975171849872681,0.146096412422434,0.00439643042609153,0.0385914914871511,0.224448783938683,0.219962011532736,-0.142576955500123
297,950,0.885507727801768,0.310707253180978,0.975768851902367,0.138358458727117,0.0073452030433554,0.0383563007931416,0.234358954552733,0.0990796663521223,-0.206321877983028
298,951,0.886615225540044,0.311006196253194,0.976361677988334,0.129541015965934,0.0078232955170404,0.0376466090463448,0.212535706658094,-0.119870262915535,-0.261841761886387
299,952,0.887592338526694,0.311309842724004,0.976916700170517,0.120846723079832,0.00871960664127899,0.0357045123976427,0.102646070841537,-0.175345637346467,-0.327296657438791
300,953,0.888502360302634,0.31163918164338,0.977424560148207,0.114024528196764,0.0108605995733673,0.0334967868647309,0.0439343260921478,-0.194032487408643,-0.320823547817497
301,954,0.889302785125979,0.311964122433308,0.977855007143565,0.105163000667546,0.0125457239578231,0.03188152688564,-0.0686381018209984,-0.0335482016945315,-0.21152650015248
302,955,0.889957007033587,0.312332002599592,0.977655896355681,0.0953388985769739,0.0172587992524801,0.0278991847623539,-0.143462341341223,0.057857467230126,-0.191510155466722
303,956,0.890497364373507,0.312867531908508,0.977540996885661,0.0863424421125444,0.0249295366378029,0.0240662985895054,-0.211901321857403,0.169055147050355,-0.17200178014037
304,957,0.890991444595734,0.313939693547621,0.977473381584307,0.0786222530679327,0.0400906232572699,0.0214972117087285,-0.200821651137491,-0.0444926394868933,-0.112776562169343
305,958,0.891474644021184,0.315837267543454,0.977434892916185,0.0726730541992728,0.0696768409019199,0.0182021669578053,-0.183142472533706,0.160474711480978,-0.179878248198214
306,959,0.89197646464361,0.318418467419984,0.977423412636433,0.0696860773623115,0.106353624521531,0.0161210474037601,-0.209920309421817,0.148815783637205,-0.0991750115780646
307,960,0.892551008700602,0.321305268872953,0.977434103166547,0.0686390547964128,0.140945939287012,0.0136178283049125,-0.223625944536583,-0.0451470994695852,-0.179096780916188
308,961,0.893271201474976,0.3241556850464,0.977449541756511,0.0701991443206746,0.167675233630187,0.0113490212759601,-0.135311345501561,-0.0584821223919678,-0.175641526616283
309,962,0.894182440847778,0.326931634959613,0.977477234058268,0.0744175704925627,0.192439498405697,0.00857320314058863,-0.00119847246296931,0.344880732258972,-0.21483126926416
310,963,0.89532249237061,0.329553180556285,0.977514316143173,0.0827727953559559,0.208833826622351,0.0070965850506519,-0.0937815103415165,0.032613506492059,-0.161835998789168
311,964,0.89660726584245,0.331890051758608,0.977548903601956,0.0899309589965158,0.21791615208048,0.00659068392580319,-0.0897464598067843,0.0864513244235015,-0.104065320553382
312,965,0.897945952939133,0.333965604590901,0.977565594444004,0.0939057538888627,0.223036699592872,0.00390163237045404,-0.10182624324153,0.156820091366419,-0.285724632042889
313,966,0.899357665749659,0.335793550111149,0.977554098326134,0.0995278046490928,0.220132220687318,0.00192716138036736,0.0541036044947223,0.0695672605575207,-0.199160850166906
314,967,0.900803958604717,0.337379002625531,0.977523633958249,0.103362045690794,0.213250667737932,0.00136341616602346,0.0164867698060927,-0.0207457215319839,-0.111697159637877
315,968,0.902279941007793,0.338788279667802,0.977473370982487,0.107061132359852,0.204056161184994,-0.000843786582215965,0.000210761738049733,0.0556067510372871,-0.205229750763646
316,969,0.903781187632452,0.340084081526858,0.977405135547542,0.110717585982761,0.192741452219479,-0.00309270956081312,0.103105000320659,-0.113799918612742,-0.20009433255047
317,970,0.905370318413695,0.341258239386642,0.977324871832718,0.114158581539786,0.180324956610499,-0.00348447989930461,0.196785579470053,-0.0506036050514965,-0.0389672344374599
318,971,0.906936131350634,0.342286548244446,0.977235608876474,0.117151676284366,0.168225804898122,-0.00469470839266546,0.0846335932319839,-0.125241934419499,-0.0960196003516601
319,972,0.90845235696649,0.343208312271347,0.977136810844357,0.119120987116862,0.157826146545072,-0.00616807899643232,-0.00408583536465874,-0.0475602607678056,-0.123228210682852
320,973,0.909893145658827,0.344068771138597,0.977026859348531,0.120473882666773,0.148834986901983,-0.00792943077661219,-0.00650589506055634,-0.00129932507254354,-0.14256295898914
321,974,0.911217676198206,0.344878073706545,0.976909907428686,0.120256996495679,0.140540081619462,-0.00929504828220327,-0.0167005995376939,0.0622060261313628,-0.11364185654584
322,975,0.912453250351254,0.345666281590843,0.976787132218105,0.120417799985084,0.134248965286518,-0.011396375912156,-0.0587343643466088,0.179274002843422,-0.179271393008924
323,976,0.913587417475252,0.346476877443177,0.976655287065097,0.117891673071761,0.129793513632082,-0.0137954499054563,-0.0656976499784808,0.191139780532301,-0.225021801269835
324,977,0.914616468609352,0.347253354115806,0.976505823499455,0.115143925344325,0.124364726346299,-0.0162390629399043,-0.0901540345231509,0.198005489672081,-0.231117238715422
325,978,0.915554525266472,0.348030432554723,0.976345603274891,0.111232805060194,0.120592029749992,-0.0186685689526093,0.00455676011497174,0.217067530771439,-0.260076042724758
326,979,0.916416215238801,0.348806213987964,0.976166514608598,0.107908150778301,0.115955402777944,-0.0220735307442728,-0.00985019516553699,0.298431612962304,-0.316344858674382
327,980,0.917223445539072,0.349614014859645,0.975971098691119,0.105420272074845,0.113746444130126,-0.0248465092493163,0.0513635557610936,0.280081876081377,-0.28729334462755
328,981,0.918036518725237,0.350571468447471,0.975775241790831,0.105313232972633,0.116228142053531,-0.0282871824002197,0.00997935707795602,0.461632951437456,-0.366531912834098
329,982,0.91889572060577,0.35152628034875,0.975577235492873,0.105805600136138,0.11601844936202,-0.0283868750190315,-0.0355478071752223,-0.035191228265984,-0.139908902703105
330,983,0.919815923027736,0.352489743634572,0.975368569612564,0.106157702233373,0.116267524992535,-0.028243443997065,-0.0053635398798848,0.209975337962682,-0.0759250392339965
331,984,0.920746193762199,0.353488556626139,0.975173752162974,0.104562983126697,0.116729303091566,-0.0265392528155748,0.11909212837878,0.356332093818516,0.0870113680040416
332,985,0.92170778384406,0.354569570007803,0.975004951686686,0.103637907188114,0.119066789499597,-0.024148306314032,0.200564964321066,0.276469383996399,0.142503935255839
333,986,0.92270984561879,0.355690499062921,0.974859787434103,0.102521703259592,0.12092721305457,-0.021343498479408,0.155525022541927,0.249501892412635,0.186852944802655
334,987,0.923721783679037,0.356835910074849,0.974734805667135,0.100555178256296,0.121390662228416,-0.0194666058615243,0.135896538754623,0.309479851427048,0.140776939121016
335,988,0.924759275275296,0.357983238268565,0.974671479834084,0.098869463719601,0.120926088813992,-0.0188982186215882,0.118556070976368,0.0994520678781683,0.00221150817004598
336,989,0.925889147660186,0.359071822450504,0.97453881951497,0.100383135851628,0.120451935538966,-0.0187531794386845,0.128976057037235,0.182294872279588,-0.0128267165474222
337,990,0.926999289407747,0.360069479515941,0.974391550888808,0.102277820304822,0.117143936527313,-0.0195601323110477,0.133693720649272,0.0280879993819958,-0.0877947375547441
338,991,0.928115319260464,0.360938402275193,0.974226013135414,0.10495442715268,0.110466936034829,-0.0200980564501306,0.184096320367922,0.0352502715999534,-0.0489250595441252
339,992,0.929224149882754,0.361693865844503,0.974048031445737,0.107647340530839,0.103370917075316,-0.0206296776939109,0.230449365702412,0.058467695315456,-0.0464515046699686
340,993,0.930304432385612,0.362387093361147,0.973862905449028,0.110616802727494,0.0959101270246932,-0.021417018021229,0.252618668739094,0.0824557990064057,-0.0578836014291888
341,994,0.93134501143862,0.363024409877843,0.973670525580266,0.112933935903709,0.0901787149709145,-0.0218116073293444,0.278883149357491,0.0629580771354978,-0.0511652012274135
342,995,0.932385748605737,0.363663100751267,0.973394006926882,0.116024288023207,0.0874736022532142,-0.0224226712434521,0.213161264941781,0.0954556481087119,-0.0872539568374575
343,996,0.933506405356853,0.364316413609845,0.973158414949045,0.121148179076727,0.0858465731069236,-0.0227775725560935,0.248122065778323,0.164174466049925,-0.0764844851358077
344,997,0.934581443973035,0.365052069067284,0.972965935253478,0.123245952887412,0.0873307355407969,-0.0224010758017277,0.228581727391903,0.276898944443656,-0.00196230581752911
345,998,0.935559601381924,0.36585841231821,0.972792786186759,0.119779825978502,0.0892898770940448,-0.0210129701242153,0.149618907866772,0.345475063411351,0.0653675295842586
346,999,0.936489119666359,0.366799816478063,0.97255120936544,0.113291449779742,0.0927741246810495,-0.020230918087968,0.209493764201571,0.306911895016093,0.0519478231121297
347,1000,0.937382844472417,0.367899858400308,0.972406544329149,0.109036280049241,0.0980344455854514,-0.0199187606170086,0.209095619572131,0.209063453193483,-0.0113995414297585
348,1001,0.938270651338256,0.369145197965403,0.97226858864984,0.106252422924287,0.104773842402789,-0.0192323349430247,0.154654202012584,0.13885100924015,-0.0167440866442138
349,1002,0.939196025031689,0.370491937337101,0.972127145239867,0.104665062077511,0.112482035795719,-0.0192940288728879,0.0337859150209329,0.122808778146037,-0.0879000436789694
350,1003,0.940103823942465,0.371908853532344,0.97197029523883,0.102779306577201,0.118227711124166,-0.0194189178127502,0.0454862944229623,0.10250141540578,-0.0659928959483387
351,1004,0.940990713409105,0.373336689245696,0.971794994542267,0.101248923167034,0.123897296193513,-0.0203989526224935,0.0801633241916812,0.171530973771558,-0.113048287884024
352,1005,0.941823596431017,0.374753340034083,0.971600816459648,0.0980171318889619,0.128161213322876,-0.0216006108338424,0.0561236831898237,0.201738450071239,-0.109477006799537
353,1006,0.942608742107857,0.376148381988827,0.971390511538123,0.0955984588890973,0.132557631972917,-0.0231507237542925,-0.00198570181472431,0.198908540601798,-0.154825716086286
354,1007,0.943387764372543,0.377560664958971,0.971165425129133,0.0951499156738949,0.137542727249653,-0.0248095592855943,0.000698951953910821,0.256000627215137,-0.18822559359944
355,1008,0.944198746914243,0.378960564993721,0.970921889206449,0.0947650490999607,0.141543978644408,-0.0263427805095704,0.0448336286700126,0.176225516078328,-0.182472637799084
356,1009,0.945074971240071,0.38031570068778,0.970661886052798,0.0966607256476757,0.144238448937136,-0.026912831515538,-0.0343502181745985,0.159701895758039,-0.113991520039159
357,1010,0.946071241780006,0.381638667541602,0.970397229787349,0.0995171981118505,0.146131789932904,-0.0270613800279701,0.000853376014022538,0.237994370501614,-0.062462821628519
358,1011,0.947088407407264,0.382905685222334,0.970125908110064,0.102730618446708,0.145962779557419,-0.0261597734199283,0.107177845520235,0.224471370522277,0.0550765653601222
359,1012,0.948180340391657,0.384153412447706,0.969860162473219,0.105137026883969,0.145452766964904,-0.0241999787856829,0.196681649056887,0.143757122315853,0.16220436674989
360,1013,0.949339575484906,0.385385447908934,0.969599767417941,0.107412602129217,0.142784801556722,-0.0224379728035357,0.202258021013434,0.210923147542789,0.217780305116517
361,1014,0.950576319128307,0.386609468252111,0.969343196938959,0.110396152208317,0.139684696070724,-0.0201486767426346,0.27823580100413,0.149253557403059,0.281429407770095
362,1015,0.951911250970795,0.387854669774587,0.969084364250692,0.115175538747955,0.13795915356742,-0.0189043800163515,0.218793012125612,0.18503791961923,0.209649417231205
363,1016,0.953333405605322,0.389136609568973,0.968815428485835,0.120942486971171,0.13656993149739,-0.0185461049308545,0.246204676328242,0.181169632726909,0.149808008843025
364,1017,0.954800664974577,0.390456105158264,0.968531336637172,0.126371092542787,0.134351403249361,-0.0195505021227826,0.154687096182438,0.210065479480216,0.0536322079404703
365,1018,0.956268423099971,0.39184285766746,0.96823152316347,0.131464162223427,0.135051589537848,-0.0217350447858376,0.119483591365547,0.183603372318027,-0.0821033841291734
366,1019,0.957694477401125,0.393295639396423,0.967941063098588,0.133975148624137,0.13676013687728,-0.0231037536125265,0.107279399353669,0.228068076981927,-0.0480701328727579
367,1020,0.959054343871788,0.394806688323826,0.967621989084443,0.135178129673558,0.139598239423181,-0.0259931626389692,0.0325024878926726,0.182278873064939,-0.186839595366686
368,1021,0.960354687413381,0.396367599910997,0.967270017835323,0.13670235081544,0.144205991000275,-0.0292687884651694,0.0279214138944945,0.202183840999265,-0.262990721571561
369,1022,0.961596547869146,0.39795512847288,0.967027553667241,0.136947580243463,0.149328309279286,-0.0318208254259819,-0.0300106521018533,0.255480208743694,-0.304305317314333
370,1023,0.962765344491118,0.399573932340969,0.966800878303046,0.135985905253817,0.154269436296483,-0.033494934392581,-0.0308276312077088,0.21132133661893,-0.27198842635862
371,1024,0.963932730898156,0.401230708047858,0.96653219739,0.136488257732108,0.161475092029944,-0.0355616766750722,-0.0470239058244483,0.201990067519614,-0.334162414773092
372,1025,0.965152189958575,0.402921465379183,0.966227595314022,0.138963625745,0.168245491731482,-0.0371746580082904,-0.104499924253305,0.250041300859143,-0.307757709066448
373,1026,0.966455508469255,0.404706868306816,0.965901218119692,0.142643681712011,0.178206762996817,-0.037569246322114,-0.0493316100794183,0.280975741099276,-0.219719575132341
374,1027,0.967835694800054,0.406576776134722,0.965563237708948,0.145630164972574,0.185599413405931,-0.0375388888085474,-0.111764777816505,0.221588922922376,-0.142491263904674
375,1028,0.969295682831761,0.408531866480927,0.965221111197451,0.148194313231865,0.193778103558247,-0.036183335953773,-0.0330733706913334,0.219437300449695,-0.00552937041915791
376,1029,0.970818891935029,0.410550466083269,0.96487907596584,0.148183486154239,0.199140968571253,-0.0338267909889577,0.0804351370416281,0.221691763977226,0.187263620102463
377,1030,0.972479016377921,0.412583642672377,0.964549113178255,0.14903826549445,0.201791816353198,-0.0312026321434187,0.107770844156811,0.258734239422573,0.282939005176712
378,1031,0.974121409231722,0.414651949132321,0.964224728729554,0.150217768559063,0.203860334975341,-0.027902921358442,0.115730964048986,0.241412625905221,0.378715759498407
379,1032,0.975798789867794,0.41670719176872,0.963918639612404,0.152926469167142,0.204443857486579,-0.0250452638373861,0.104485349794169,0.267591487567546,0.367751182590313
380,1033,0.977484776989327,0.418768107037835,0.963634891997326,0.154825992309226,0.203651276404104,-0.0206890015959764,0.0640632094446543,0.284863610108078,0.523629978015078
381,1034,0.979150680213604,0.420814305029946,0.963372730636042,0.15518477605747,0.203128593261671,-0.0176924704553153,0.0137950669202638,0.303258924597478,0.438411738267931
382,1035,0.980831433821681,0.422866440662421,0.963127178115186,0.158408501855583,0.20378014637639,-0.0150380344241026,-0.0657759695710262,0.242171742164564,0.347789843713153
383,1036,0.982545790754195,0.424905800281119,0.962894243360746,0.162856536949605,0.204994065478848,-0.0124956495426709,-0.159244008587149,0.225155950711952,0.307564314564328
384,1037,0.984470089127309,0.426909927778859,0.962831302601635,0.1724615851487,0.206184416518985,-0.00671472064950261,-0.239108033369096,0.191893941799719,0.368618721470553
385,1038,0.986068783219818,0.428849000960308,0.962682337244139,0.177802905059641,0.207612958839204,-0.00236824000557004,-0.26073353362814,0.195538036182,0.399361918768884
386,1039,0.988426658132755,0.43086524100455,0.962575049131113,0.189722941507877,0.209476947949675,0.0035742226798258,-0.27110236429634,0.239172409576269,0.575253322951938
387,1040,0.990636114845304,0.432855501361099,0.962518547221554,0.199529237314447,0.210530862546121,0.0103233993107591,-0.260962530394738,0.301209362194827,0.686674285336282
388,1041,0.993035886120695,0.434826218079463,0.962509518713775,0.211264226396496,0.20998280119801,0.0175856649480565,-0.200320647624675,0.234101829615562,0.758068140315353
389,1042,0.995386581510226,0.436751889906511,0.962537788187122,0.219628040954623,0.207513982069908,0.0246527148183648,-0.133857950187397,0.164356137051298,0.792896225773217
390,1043,0.997723646048599,0.43860478232748,0.962592564887268,0.22449451911299,0.202090962116884,0.0310272614454307,-0.0873489702966146,0.248259315442147,0.826594435213698
391,1044,1.00000151670493,0.440406490608778,0.962666630030344,0.22657347175282,0.197157618787856,0.0361839033326703,-0.00190552448329819,0.166697630725194,0.762033979213248
392,1045,1.00224286241574,0.442167343375254,0.962747799814416,0.226236831405648,0.192730053476941,0.0395683543756922,0.0446739890007133,0.274022357427188,0.668446479999163
393,1046,1.00446725205358,0.443916559413869,0.962832164299207,0.227275576703673,0.190840630454372,0.0415631500594554,-0.00197779456717851,0.340009230441727,0.520539485527358
394,1047,1.00669886111299,0.445704267681196,0.96291759094651,0.228570337220847,0.193128223265054,0.0424717756351555,-0.0931716493644425,0.399099123033685,0.391639454563582
395,1048,1.00893755248453,0.447561330269785,0.963025708274407,0.228810448692793,0.197999954582346,0.0429276396072917,-0.145475743904725,0.51225375017569,0.325903267617227
396,1049,1.01120747871716,0.449542462366033,0.963187816668844,0.228989147099724,0.206097016067496,0.0435104295099754,-0.212612086533819,0.505189492245854,0.297538461246184
397,1050,1.01353009645415,0.451653585144986,0.963395931322744,0.230006386039116,0.215502447963236,0.0438081675543282,-0.29070877426489,0.499106797615644,0.241945118872125
398,1051,1.01594984555295,0.453893555267948,0.963641141240565,0.231722310365135,0.225516093353406,0.04428170393533,-0.246894413714698,0.557083638965532,0.244182233827976
399,1052,1.01841002643369,0.456227902957654,0.96390925833876,0.23452560064538,0.234542625402561,0.0442474170497684,-0.195181607009723,0.510109862459475,0.209109526061514
400,1053,1.02092864643529,0.458623145189226,0.964199084697273,0.23738797267179,0.241361220951334,0.0437468197774884,-0.146953107457826,0.403021710040103,0.166504429997963
401,1054,1.02350742179523,0.461077047311123,0.964503014182688,0.242360273128277,0.247332212271438,0.0423867519535554,-0.0933948857325061,0.328287415366231,0.064958879290187
402,1055,1.02613746565237,0.463556237596084,0.964812965410197,0.246469002723918,0.251399971155915,0.0410313794566833,-0.0509178539669593,0.275297606418704,0.0602426566680131
403,1056,1.02878898617137,0.466066953366435,0.96512747006395,0.24951025755022,0.255021230158672,0.0397468335825016,0.115203399399418,0.227432997540562,0.0677884575609777
404,1057,1.03144198941483,0.468577860998345,0.965447740047792,0.251576854276291,0.25590350071117,0.0388155105421116,0.167255879101602,0.163804709238811,0.0995546274477537
405,1058,1.03405294933735,0.471087524709504,0.965774833000248,0.252112987615293,0.256196269117375,0.0383950395503061,0.232235201171323,0.182524117959503,0.134159378363736
406,1059,1.03661920049263,0.473596698271051,0.966106383569555,0.2533575920662,0.256222278547734,0.0378433626381679,0.265734411161276,0.180623896687376,0.106333660906777
407,1060,1.03913094456708,0.476105571455997,0.966437221033316,0.253828691672955,0.254843917984863,0.0368310775236291,0.333954568807399,0.138244206110399,0.0626999507166554
408,1061,1.04158913403228,0.478620880632111,0.966764272659627,0.252807780083786,0.253286989728343,0.0359414068545324,0.287522187106251,0.0590562882596932,0.0586615545676302
409,1062,1.04401584923866,0.481141466784815,0.967083112957902,0.251787119661882,0.251012235945375,0.0346403501022361,0.309536895383408,-0.00134853796079024,0.0241543660442209
410,1063,1.04644731487172,0.483683473612279,0.967392053267425,0.251921212228901,0.249411052368334,0.0333025958307721,0.299521334194976,-0.0608885620657309,0.00640076398555562
411,1064,1.04891074881198,0.486266005077472,0.967692974545756,0.253561753910936,0.249662803668362,0.0319867793103106,0.275081900683457,-0.0801469496608544,-0.00819339451705706
412,1065,1.0514198652367,0.488899844355296,0.967988783370098,0.256642452200454,0.251332919602981,0.0309159039795874,0.272309281019954,-0.122802283856493,0.0025345917474302
413,1066,1.0539599624295,0.491586156802837,0.96828376738475,0.258646778179543,0.254566306627072,0.0302539477376794,0.300936712036356,-0.0784978544494665,0.0274207175817019
414,1067,1.05653700832072,0.49430265312487,0.968577730606227,0.26056430563423,0.257055393411745,0.0294899075188485,0.241042679971763,0.00967622662388597,0.0330854578279864
415,1068,1.05914297059212,0.497256199622404,0.968887542770017,0.264213086823497,0.261710339936918,0.0294551128770089,0.138575290123667,0.0603576730287899,0.073699269099334
416,1069,1.06181883463702,0.499983872962894,0.969174538328904,0.26667326720619,0.263073758271529,0.029762652556714,0.242236195155258,0.0190882004677443,0.12117795584726
417,1070,1.06451270125795,0.5027484896518,0.969467034827149,0.269892128053876,0.267979635964569,0.0308069701133846,0.265003271713267,0.0935774654567247,0.203948180338378
418,1071,1.0672476442463,0.505528991320349,0.969762407902955,0.273009435097008,0.271823623700303,0.0322391693517582,0.34968843821076,0.151915951110493,0.299452257421471
419,1072,1.06999236609285,0.508342251961668,0.970059080572001,0.274315795234875,0.275783639794752,0.0333851084262463,0.397724413452035,0.216147724623574,0.303075472767424
420,1073,1.07273376279539,0.511209864361129,0.970356265611807,0.273534860817312,0.28072968617309,0.0346047044719895,0.420259178398318,0.189203042714614,0.308626443059684
421,1074,1.0754772988674,0.514142604172995,0.970649815095457,0.273799339249504,0.286769977140948,0.0347007178101488,0.336495215259641,0.177137156364772,0.203827141093298
422,1075,1.07823092725422,0.517146521091524,0.970933499422786,0.276049455300106,0.293179082918695,0.033948245741267,0.313110760669658,0.105677482635188,0.113071418153336
423,1076,1.08102015152246,0.520226138604978,0.97120242377649,0.280113716296143,0.299526173923202,0.0320819513451677,0.259688697520972,0.0774260870612876,0.00656336421341093
424,1077,1.08380753376821,0.523368799532768,0.971454628768424,0.280877178855372,0.303951311610562,0.0301563870692151,0.275783800805615,0.0636659859404613,-0.0149169886647874
425,1078,1.08656732485947,0.526525851769509,0.971705196166937,0.280087680709951,0.306214170312997,0.0289519035258119,0.294348468428437,-0.00156931241437652,0.00376700133573557
426,1079,1.08936195260342,0.529764924150641,0.971951311780695,0.281285738265545,0.30835822759304,0.027182963273039,0.25739379185027,-0.0547039567061724,-0.0473608789902334
427,1080,1.09218249799829,0.532987940753493,0.972193175613034,0.283865399734996,0.309461698309775,0.0254076456594394,0.326523970443016,-0.120718065984365,-0.0729830919174356
428,1081,1.09507932443175,0.536221001503207,0.972422350783209,0.288626749429865,0.310229269399741,0.022506012196297,0.311364474977816,-0.114287422450996,-0.180195073216534
429,1082,1.09805855285344,0.539423407296747,0.972630493954448,0.294571526080227,0.309653520576473,0.019645010026803,0.325995870934528,-0.078736853377648,-0.19659487350304
430,1083,1.10110161202054,0.54257747872333,0.972817731465105,0.298746028665253,0.307484522635652,0.0169955677728914,0.284067427835694,-0.113177668343379,-0.201637053656139
431,1084,1.10420477313972,0.54568862897422,0.97298537258211,0.303631625882508,0.305805684137709,0.0142821750008284,0.218834932826234,-0.173473121183328,-0.219830967573898
432,1085,1.10732595617686,0.548791618492989,0.973143314328882,0.305562850662352,0.30606405470681,0.0136870654499035,0.218576701435485,-0.125108264934532,-0.0670144416471947
433,1086,1.11045141965721,0.551939912613684,0.973302176228203,0.306471270378257,0.309564262718291,0.0138489463921603,0.232454957241769,-0.103068726057736,0.00683281285204052
434,1087,1.11355553546226,0.555157528960923,0.973466012825269,0.305480177723956,0.31464440587267,0.0145896578879585,0.223399561390542,-0.165004759354381,0.0591445274734322
435,1088,1.11659829587493,0.558439707557361,0.973640206278704,0.300364924416882,0.318782133120987,0.0163841381451024,0.146025956286835,-0.308836498089143,0.148445227233101
436,1089,1.11955955707886,0.561762814563843,0.973821474427023,0.291994331344172,0.319837380277325,0.0170377826756946,0.0826400354473061,-0.308687802911774,0.0726424897538987
437,1090,1.12243265199733,0.565075106446268,0.973998830984734,0.279825453350075,0.316130197149843,0.0169327751709456,0.0545624598262789,-0.382414280448843,-0.0132406447154236
438,1091,1.12518171107892,0.568419816612077,0.974174855507033,0.270198000000266,0.314903115808377,0.0160262826116545,-0.121967992460213,-0.484938589896284,-0.0848566338482476
439,1092,1.12793322777674,0.571849033328765,0.9743369515667,0.26811199186893,0.318601254099326,0.0132307794675216,-0.292915127789151,-0.498840768673237,-0.224320240816193
440,1093,1.13071024005269,0.575391561476115,0.974476322817548,0.269847166495559,0.325225158134914,0.00926588315213085,-0.337009267413017,-0.473718963696495,-0.322112683006758
441,1094,1.13345992473253,0.579013010069822,0.97460534231965,0.268760214235722,0.3305264010735,0.00720474773229341,-0.273030153639515,-0.301917308496929,-0.190974922450276
442,1095,1.13614464659184,0.582655673225066,0.974746556685306,0.263192173487043,0.332496891179739,0.00727194900104782,-0.261179804645499,-0.124408179857437,-0.0351557623202524
443,1096,1.1387283287506,0.586220943969421,0.974938257535476,0.254725812561634,0.330784518452745,0.00964816100804982,-0.288876461782481,-0.0664274222176383,0.0883871785754324
444,1097,1.14119731980007,0.589524024124724,0.975185549673314,0.246847782111524,0.324360246892937,0.0116418342332941,-0.521308714973686,-0.130225765758774,0.0531349255289434
445,1098,1.14326484579836,0.591783140431617,0.975469273450968,0.233335061706892,0.298176606593692,0.0147072087177745,-0.627803312096226,-0.323108543062094,0.138468045907272
446,1099,1.14469397563002,0.592511996077339,0.975753769564745,0.211066783200847,0.248880185012341,0.0182717071473567,-0.685936873297498,-0.287861523147473,0.192827987237343
447,1100,1.14563595778341,0.592197698749724,0.976010655511231,0.185301760257008,0.188878522641043,0.0211645810139623,-0.52723519343357,-0.454494097584386,0.175424973794072
448,1101,1.14644302825536,0.591535820965029,0.976217897760926,0.162609290457701,0.133501165474284,0.0215120391357306,-0.580046546415396,-0.412409117073928,0.00109145442869396
449,1102,1.14740113540068,0.590985137651375,0.976354921690436,0.151430085955333,0.0921577198241585,0.01859237149355,-0.633028728577968,-0.430309138714033,-0.204056565079089
450,1103,1.14866184671413,0.590740225613792,0.976417524424227,0.149260821711249,0.0638900367399216,0.01384734901595,-0.605134098702255,-0.405248808519841,-0.318768482293277
451,1104,1.1502689719745,0.590843331482809,0.97639374768189,0.152032830398916,0.0467658015810288,0.0048232109779672,-0.793890639301543,-0.447681474930399,-0.678024039445587
452,1105,1.15217041554518,0.591254275321151,0.976275021733044,0.156330296738066,0.0382571041887089,-0.00599658217491253,-0.96497000685549,-0.474396776895295,-0.847922262880002
453,1106,1.15421583647293,0.591919950829214,0.976088546795188,0.156683025748843,0.0357457444759188,-0.0122730623416713,-0.568183233050943,-0.281696176563001,-0.486003274074699
454,1107,1.15640753036635,0.592775291172252,0.975845153994431,0.159263687902875,0.0373564770013527,-0.0195978516362516,-0.475417930936518,-0.0445856894137639,-0.499227240019008
455,1108,1.15873153691428,0.593793567381706,0.97556331308755,0.162883059436913,0.0447404634700306,-0.0290308635655346,-0.433461477776389,0.088316798619546,-0.758658393495025
456,1109,1.16117539752758,0.595076559511959,0.975231912883848,0.171652690063693,0.047928161531085,-0.0323319570374995,-0.246417777504005,-1.22981378332142,-0.229634731628018
457,1110,1.16375316656689,0.596414012275847,0.974889753627716,0.180135320619691,0.0577280299506431,-0.0388405905479984,-0.354011602617529,-0.238586138846864,-0.548028580714828
458,1111,1.16641068991829,0.597923749511353,0.974515896637561,0.190977419955399,0.0681610706946461,-0.0446149661926582,-0.136610001634358,-0.276797476133835,-0.498827856844748
459,1112,1.16916752462274,0.599564509478652,0.974106294889826,0.201946255038257,0.0783207855728312,-0.0507197576059497,-0.133011038715003,-0.105675016505771,-0.554789577315013
460,1113,1.17193572135482,0.601369516224952,0.973666738487787,0.213315354081401,0.0882841884612825,-0.0549479716537392,0.110616930145345,-0.283199608269588,-0.457303213037032
461,1114,1.17476952503321,0.603327507870428,0.973199126644622,0.225029799841763,0.0982829611118171,-0.0591749664019825,-0.00964973630195887,-0.327848134129735,-0.462679719994831
462,1115,1.17762153000336,0.6054315530486,0.972703552600608,0.236825678663252,0.1094319146283,-0.0632864884559234,0.0633664390832206,-0.253235202888578,-0.478446727724164
463,1116,1.18046266108211,0.607636102065074,0.972186534360814,0.247637479041873,0.120098559855787,-0.0667840576747043,0.23366398016519,-0.147340871064627,-0.469166953919793
464,1117,1.18327900419347,0.609896134248557,0.97165226573987,0.257977450929565,0.128132062011544,-0.070405213901245,0.288277908261495,-0.171087339885396,-0.508894968999592
465,1118,1.18607160355914,0.612104776524135,0.971093396867318,0.267059992237433,0.132278820833919,-0.0756997493752916,0.263008843025835,-0.176259233496069,-0.666118719175067
466,1119,1.1888006788008,0.614212439472004,0.970510248203026,0.27251586184586,0.130856296062459,-0.0808392624507385,0.29627571404688,-0.501684057803557,-0.722993388192643
467,1120,1.19144406635358,0.616173456483852,0.969908974838269,0.273949791385747,0.126024758345715,-0.0851094976958249,0.26851648467943,-0.757682722701176,-0.72165429071644
468,1121,1.19402740562938,0.617957905646857,0.969286628232902,0.27481064234016,0.121309470080715,-0.0904454979075049,0.21848257411832,-0.678386190728635,-0.82793623611938
469,1122,1.19655939450253,0.619556819973437,0.968640607727044,0.276077748306907,0.116572586573129,-0.0964629147343633,0.267936328545818,-0.514023174927211,-0.9360815716216
470,1123,1.19907973270169,0.620977007353692,0.96796217891022,0.277326793773376,0.110352133639757,-0.104188422183487,0.17797724960271,-0.384312259966369,-1.09951647092716
471,1124,1.20159297290098,0.622250312631159,0.967252924722299,0.276899173052065,0.103872223103413,-0.111822434114492,0.173745996422804,-0.308398652309185,-1.12567777111715
472,1125,1.20412873478043,0.623396321908305,0.966506809927391,0.276056535824315,0.0957274973101216,-0.117935812580167,0.0788521130198574,-0.245383480366802,-0.966122398539114
473,1126,1.20670857826316,0.624407912444898,0.965736342901745,0.269497232635892,0.082553038056157,-0.120077944952254,-0.397766120707797,-0.396345229945156,-0.51182343890681
474,1127,1.20926259394947,0.625220060555063,0.965039356060405,0.249914694563374,0.0580335488997404,-0.113043337029191,-1.40843387787887,-1.38516791610022,0.489846773096623
475,1128,1.21157054169902,0.625701256737447,0.964506547389379,0.219411403391973,0.026892116336294,-0.0953013644881542,-1.08411087815784,-2.24423012007303,1.46466703127929
476,1129,1.21373893649366,0.626016339159158,0.964048442993656,0.209197508977193,0.0239459998813746,-0.0766168648678816,0.0149445443367805,-1.59061343920216,0.956242193622399
477,1130,1.21580167279138,0.626396961769753,0.963772399668979,0.192619336847541,0.0433459774930695,-0.0516300659885858,-0.331465943979974,0.0891690677649069,1.10747798881929
478,1131,1.21775643428633,0.627042989557002,0.963676287780062,0.177729577601098,0.0648951974986269,-0.0302146765213161,0.28745395838275,0.465293260366906,0.97441301966252
479,1132,1.21975783528537,0.627932444185987,0.963656186027353,0.188633098832856,0.0805968255791139,-0.0214443814059764,0.663437319901304,0.142262687037245,0.459308583324987
480,1133,1.22202766492852,0.628863599745354,0.963585189277465,0.20633202745597,0.0956134419000595,-0.0212833738377861,-0.181706205968519,1.24600042978194,0.283834687045116
481,1134,1.22461915866361,0.629796719503516,0.963461838938696,0.224883137360835,0.122301862588762,-0.0273435782977101,-1.11438151665675,2.49231623037441,0.296965128003234
482,1135,1.22731034474967,0.631006766471234,0.963375922628665,0.233910659371871,0.144029080908235,-0.0243760828772373,-0.969481055808291,0.739523957805797,0.565257671028285
483,1136,1.22988518252795,0.632329479557617,0.963328049727453,0.234041671439791,0.164802357282734,-0.0160235511977523,-0.313775433839106,0.427057876654851,0.66570700667792
484,1137,1.23218002004413,0.63378151282174,0.96335919704911,0.219198503442965,0.175914186734148,-0.00203787519309563,-0.303442631080257,-0.37715796876935,0.977095238659078
485,1138,1.23416944483764,0.635043044640652,0.963404854277832,0.187803782790177,0.165159968329393,0.00174838674559161,-1.37196475272318,-0.716401153858303,0.3809370693327
486,1139,1.23589249739752,0.635995984008212,0.963411786744708,0.166747642272948,0.143987489806198,0.000562664934316371,-0.907469505791497,-0.423253366716713,0.0793771311470793
487,1140,1.23746492137391,0.637282009789195,0.963441900684811,0.167063533459936,0.138724733550462,0.00328330758176755,0.394086868298111,-0.488316569210381,0.243893419661864
488,1141,1.24228018179649,0.63944880161435,0.963569532874796,0.20961651891225,0.129514787833431,0.0125811228628433,0.693097184155935,-1.51381113592613,0.535096652384972
489,1142,1.24436414423267,0.640180607031612,0.963711771295144,0.217473051127507,0.109141671911726,0.0203903781798149,0.300899582438035,-0.845499598422631,0.512340002346212
490,1143,1.24775461605912,0.640632628214558,0.963778571258814,0.234713970086693,0.0876481270596871,0.0232320362870803,-0.103148462402458,-0.657463379359024,0.354886272324524
491,1144,1.2504158058946,0.640438348020147,0.96385651542862,0.239248413412463,0.0629392000542285,0.0268743521311739,-0.0314049278527815,-0.327342963689351,0.515186172256575
492,1145,1.25283753728877,0.640023942726254,0.964340692707875,0.239684028215791,0.0394443695472971,0.032616720255272,-0.0872727259385009,-0.19990657229272,0.46969349825226
493,1146,1.25492260407987,0.639573521491067,0.964598849155446,0.234942131254152,0.0198200390476148,0.0346460773555273,0.0103519036053234,-0.0954451107709756,0.355476058217674
494,1147,1.25683170275851,0.639138385206238,0.964890309071166,0.227515148947253,0.00267257043480154,0.035645023044435,0.155405780364585,0.0188071326967935,0.293666517482101
495,1148,1.25854013571513,0.638766093398045,0.965164482001951,0.213954033498348,-0.00853520911820005,0.0374506361806512,0.101314668049783,-0.0462650118925159,0.323020061414194
496,1149,1.26019345992153,0.638388812235932,0.965255627251652,0.196965711913016,-0.0178534663838575,0.0381504012047989,-0.209710759449007,0.0321382585605371,0.315410932818391
497,1150,1.26182321905136,0.638072573100158,0.965346656941023,0.181681435013056,-0.0213883302396385,0.038564711490471,-0.256753554212504,0.218058211759287,0.301277438891697
498,1151,1.26350932722329,0.63794834125791,0.965441443641818,0.173397728696591,-0.0185870905215855,0.0368978820627328,-0.286824972653367,0.235401776944373,0.166971723435949
499,1152,1.26527585575258,0.637967638408759,0.965549770590597,0.172492403137462,-0.0118764516126851,0.0329307462216013,-0.342127921116678,0.284433068387953,-0.0380545796714705
500,1153,1.26711283208613,0.638232900756362,0.965697309812055,0.173440999541954,-0.00311657873388274,0.0279037889119755,-0.469514002754435,0.0507761548977099,-0.247760805765689
501,1154,1.26897267875435,0.638603035354221,0.96584201963559,0.174103263709134,0.00389952873163883,0.0241755784368305,-0.49506239207043,-0.00206692933717248,-0.241405000758454
502,1155,1.27078592121196,0.638983936402219,0.966102412800246,0.172905924390246,0.00807626589505796,0.0216398884125948,-0.52055385004431,0.120350327658439,-0.255689429294161
503,1156,1.27249815686267,0.639268522224734,0.96639061150502,0.170568483553559,0.0118873179452695,0.0185902980094598,-0.383735860528128,0.219358365026642,-0.345439166609713
504,1157,1.27411782249304,0.639411910787905,0.966680318211036,0.167653662892277,0.0125131484810248,0.0168921928813813,-0.234598037687698,0.134958731856367,-0.281360483001563
505,1158,1.2756659864653,0.639395843535687,0.966974845977982,0.164175147730619,0.0125340543432525,0.0146909268166658,-0.100218459953033,0.344050747736301,-0.331817825297408
506,1159,1.27716029306685,0.639255338052458,0.967279954684073,0.159876257388364,0.00912871691033992,0.0137126722994248,-0.0821693554013766,0.197118513456527,-0.250246915791924
507,1160,1.27856949236698,0.639026079481001,0.967611782663487,0.152800148510417,0.00366721101220666,0.0146657795366775,0.0842672616327592,0.352238608797237,-0.131428963507985
508,1161,1.27988457906427,0.638833723695679,0.968199977616498,0.143517729735474,0.000395756991966185,0.0164498585623633,0.13225071520421,0.60319915805053,-0.165102755811059
509,1162,1.28106774946171,0.638831631140588,0.968901967432241,0.132673369114353,-0.000102278465281547,0.0199451022845516,0.261764935255435,0.427894956693897,-0.109854385360644
510,1163,1.28217719885899,0.638976073639982,0.969623192494954,0.123153566887359,0.000510115527335385,0.0248750584312286,0.194309180823854,0.178037306417702,-0.0194570625194712
511,1164,1.2831806491478,0.639281041516283,0.970381618889841,0.113291447454461,0.00531867989923072,0.0303319440531459,0.123079106577202,0.205433343007358,0.0144945216325923
512,1165,1.28408125794152,0.639718871097756,0.971165300347359,0.1028482085994,0.012381239454809,0.0348544779158062,-0.10605775982594,0.0265918166354491,-0.034843902892615
513,1166,1.28491034410901,0.640191319647974,0.971934703041277,0.095774528098397,0.0197008627675113,0.0372511936815789,-0.23074168487673,-0.104033841007074,-0.131996270865787
514,1167,1.28573066543387,0.640578140033361,0.972650593591151,0.092938303507915,0.0255057858300766,0.0380344353053313,-0.27128205346503,-0.184379526596513,-0.16750972550026
515,1168,1.28654887687709,0.6407932311158,0.97329547609513,0.0909830485413147,0.0275366737212514,0.0376756241100966,-0.213077900469725,-0.0143642218013336,-0.18161115598081
516,1169,1.28731022916904,0.640808659302283,0.973867634727559,0.0864736834003285,0.0261372336523715,0.0372910810624326,-0.202082878134756,-0.0284086290158125,-0.149411249444076
517,1170,1.28796142676265,0.640534459005735,0.974363860762061,0.0809358676396611,0.0180482281259565,0.0355008737077202,-0.150921328046768,0.0647942019177499,-0.181111257086609
518,1171,1.28846039725064,0.639976179982393,0.974787827290239,0.0731384795934418,0.00551928767148646,0.0337699996847851,-0.0120150524884797,-0.0650732041010397,-0.154500664134684
519,1172,1.28881188341689,0.639143140974056,0.975140366854231,0.0616774984082644,-0.0105409600518503,0.0322519042167412,-0.0330576664444557,0.0886683030863235,-0.0958077259913636
520,1173,1.28888792208264,0.638018169419254,0.975445753542327,0.0476632950965325,-0.0264923358759396,0.0299337623645188,-0.00351520588930509,0.19743446560824,-0.138428594681411
521,1174,1.28874272536802,0.636727318470671,0.97570088012594,0.0316703055955423,-0.0459268242749256,0.0272757370667214,-0.0304908541971689,0.0887014703729819,-0.127583888655684
522,1175,1.28837475846249,0.635318000831202,0.975917544496261,0.0151118304329637,-0.0627590086970355,0.024323421461076,-0.0859175611244992,0.0878819363459563,-0.139399046207036
523,1176,1.2877515595046,0.633826758353731,0.976108523455337,-0.00416110290110558,-0.0791475063933048,0.0216241609822411,-0.113470731000749,0.114586755329281,-0.114139769448119
524,1177,1.2864666609592,0.631799325831689,0.976218960526009,-0.0221720844721295,-0.0910437233838368,0.0193758346643654,-0.0374975631715085,0.120450490042013,-0.0922424360057661
525,1178,1.28540762335194,0.63030505142906,0.97637114145771,-0.0395255012117578,-0.101015695307584,0.0163380392040151,-0.169739322110096,0.0365178023834765,-0.133454949294771
526,1179,1.28415510479445,0.628735505615879,0.976507812654709,-0.0608209810820698,-0.11444732335244,0.0140552873872134,-0.0885954256417565,-0.0687583351012949,-0.0582839489298387
527,1180,1.28267928379818,0.627071232028255,0.976622054776147,-0.0829218479564797,-0.125710022408679,0.0100027547614282,-0.14450050571801,-0.00617440766194821,-0.187857304731748
528,1181,1.28101328819671,0.62535936491254,0.976718168393244,-0.104035178662159,-0.136177910077883,0.00723396548625659,-0.056950307700883,0.0382623621207162,-0.108099511548257
529,1182,1.27922241311555,0.623635238938737,0.976805130147488,-0.122266170874269,-0.143637676652212,0.00501298731065369,-0.0296015482065378,-0.0509253495339,-0.10843163088458
530,1183,1.27731791389506,0.621855402670111,0.976882644655055,-0.1389352491032,-0.150518986746972,0.00452269717556128,-0.0589858861233844,-0.0734597614233521,0.0100522502132361
531,1184,1.27528969927434,0.620026153384243,0.97695377233187,-0.154677101590527,-0.156026751985924,0.00437015107999154,-0.0550234816029258,0.0316473680182424,0.0473865075855586
532,1185,1.27312004131643,0.618167078242226,0.977021394493495,-0.168384464626995,-0.160095670752054,0.00439914131129416,-0.0572691532784214,0.093600758160837,0.0788877302272748
533,1186,1.27081899222339,0.61628416453483,0.977087037777013,-0.183080468106883,-0.164566368180073,0.00463314511624609,0.040092138949099,0.0512389422464902,0.0903756223091588
534,1187,1.26838881568005,0.614356736053411,0.977141055854499,-0.197427752446245,-0.170073570492141,0.00383600756181763,-0.0441262480270806,-0.0133732961797049,0.0267536735758823
535,1188,1.26597423227314,0.612591759692294,0.977193806730168,-0.209067877447986,-0.170765022345561,0.0033026896255513,-0.0533604319039987,0.139257937294938,0.0187287654237201
536,1189,1.26328096043991,0.610599340758299,0.977244233245533,-0.221159179813924,-0.174104620865342,0.00174754686305228,-0.0493101481323879,0.187267800394922,-0.0534293406575336
537,1190,1.26062044575378,0.608756469862258,0.977293844298096,-0.229570608690801,-0.174320411318492,3.80028303767452e-05,-0.0368030103631022,0.180368373053494,-0.0926364965816082
538,1191,1.25786989266592,0.60685035447628,0.977333759083477,-0.2392985468138,-0.178158298936272,-0.00219592688302815,-0.106562787016938,0.0686322370245131,-0.158392452482582
539,1192,1.25503634973009,0.60489575979676,0.977371050053706,-0.247316566802422,-0.180605468977352,-0.00316276237482077,-0.040165364792224,0.0637636447673347,-0.0957602794454988
540,1193,1.25215847372196,0.602918479141973,0.977414533490705,-0.253958215692297,-0.181658689971245,-0.00359756026904305,0.0536642737779749,0.080540194635846,-0.0867513042674532
541,1194,1.24928418814122,0.6009482022516,0.977470248022057,-0.260005608186199,-0.182201746038828,-0.00381983181759248,0.0371234121792592,0.166840554993045,-0.0918820646187467
542,1195,1.24664895759354,0.599267522017723,0.977530985103727,-0.262000426648631,-0.178524764820761,-0.00305899935900065,0.125071436402682,0.213963080946631,0.0098938167763956
543,1196,1.24437279026839,0.598022593008739,0.97759805743292,-0.257262319665942,-0.167891365598443,-0.00253026066878927,0.122039299974297,0.201372527139642,0.00706990071538716
544,1197,1.24131835809173,0.596097287143925,0.977643071405535,-0.263670095303918,-0.168219089334108,-0.00356915314925191,0.0852471623871099,0.165204123736357,-0.083898792437412
545,1198,1.23864459777255,0.594608843468882,0.977638922420822,-0.264178266154433,-0.163098695298441,-0.00514597072587728,0.0919805861686135,0.177688736034655,-0.0899640332134568
546,1199,1.23565291547779,0.592961260395415,0.977578334489796,-0.268326750649911,-0.158993494342832,-0.00752873652059773,0.170517185218784,0.305706198093468,-0.113322255093702
547,1200,1.23264695217283,0.591431973733694,0.977459609537732,-0.276216473930615,-0.157967989074348,-0.00898707709828029,0.0724669160779325,-0.0897046636234062,-0.0299285519391296
548,1201,1.22949174420904,0.589839771322944,0.977503940824648,-0.28453250110495,-0.157161957138606,-0.00881647828185073,0.195295098765152,0.129650487367549,-0.0511554410693829
549,1202,1.22624259151952,0.588314149914542,0.977528711192448,-0.294741140011442,-0.155178534776924,-0.00844382090533099,0.275766910739879,0.149564179911422,-0.0426043952435552
550,1203,1.22336332852769,0.587229150312148,0.97754809734781,-0.29650515919227,-0.147722861069273,-0.00802876549454452,0.172012068865935,0.107720598700693,-0.111409843960887
551,1204,1.22000502475208,0.585651444253306,0.977568538103432,-0.302151458406731,-0.146772860542711,-0.00909740263313411,0.0667461145551035,0.10120274471919,-0.194739451960118
552,1205,1.21695725100622,0.584308669440791,0.977588892303476,-0.301400481948987,-0.142421126759208,-0.010783477282619,0.0932779067967451,0.0841376400269341,-0.262138258182292
553,1206,1.21378824177626,0.582788958630401,0.977601136787897,-0.301492699153375,-0.141246313937128,-0.0118531087452441,0.119982301634034,0.0226368491140161,-0.23387921459654
554,1207,1.21078590002951,0.581333713007994,0.977593775707387,-0.298632339717766,-0.139955998216985,-0.0127099115523847,0.134558820929473,0.0511932549823616,-0.197578434228627
555,1208,1.20784329968053,0.579889318359544,0.977560649266065,-0.294178263609056,-0.138352389443285,-0.0138579589722896,0.119927162357881,0.12097721252501,-0.171326822136692
556,1209,1.20508644472074,0.578627894572584,0.977518910457586,-0.290167431961553,-0.13443991381575,-0.0135855330300189,0.235833802688673,0.0873417331457664,-0.0575444217452588
557,1210,1.20227319772114,0.577376672051606,0.977481442756984,-0.289040520000017,-0.130644071356727,-0.0120141481853153,0.313290110351665,0.125662687906881,0.0551074609019916
558,1211,1.19959153698258,0.576258821566184,0.977442495262564,-0.288021153557309,-0.126640817576214,-0.0113936221087828,0.278335242176445,0.235945956086677,0.02105415399927
559,1212,1.19683158348152,0.575200207064334,0.97738790038835,-0.285797692457083,-0.120559196898595,-0.0117135153375518,0.222140811104574,0.117210702741052,-0.074877998603649
560,1213,1.19411538377017,0.574247787439245,0.977306721338603,-0.281383014166202,-0.113646090144816,-0.0127372308527641,0.193078449403996,0.102191897248845,-0.128493009928747
561,1214,1.19144627619397,0.573407341655272,0.977195383545338,-0.276482343481622,-0.106309016335703,-0.0150246895897212,0.203253520995978,0.146107771371164,-0.211001011331402
562,1215,1.18884695305809,0.572699446607328,0.977056983186139,-0.271169744677922,-0.098528730701015,-0.0174402905439503,0.164830402906038,0.119900121945136,-0.223689628292968
563,1216,1.18631876331346,0.572114326881873,0.976893030388139,-0.265982893303427,-0.0904763424167695,-0.0196327462616707,0.282300532743017,0.139629452809744,-0.195679985714203
564,1217,1.18387546327478,0.571663348267309,0.976707471852351,-0.260756309004899,-0.0811761113070365,-0.0220031409689873,0.219357578258256,0.0975497207014289,-0.205866077695202
565,1218,1.18150523677274,0.571323176006556,0.976500914674366,-0.254314539541023,-0.0714425815767551,-0.0240485241924579,0.213239916650936,0.121987340953742,-0.186779452090328
566,1219,1.17920113488289,0.5710647656298,0.976269026976212,-0.247481880260002,-0.0624073632324228,-0.0269018253607528,0.296971455946074,0.16629702899614,-0.244877710730461
567,1220,1.17699928092368,0.570903490892558,0.976010718523278,-0.239337637544113,-0.0523022311592484,-0.0299329905422285,0.260393185691949,0.197432247562115,-0.275826769704846
568,1221,1.17491228377698,0.570847428287758,0.975727791766015,-0.230642441897307,-0.042738412742302,-0.0331587719962917,0.291118970590787,0.124617014347768,-0.301013337979157
569,1222,1.17299365606797,0.570912746571818,0.975426071989724,-0.217822581031401,-0.031999596978292,-0.035327531119247,0.232008575438197,0.0181978282395828,-0.259707137890042
570,1223,1.17126463457819,0.571106571524753,0.975113762904744,-0.202732490296191,-0.0197686333997491,-0.037181901443109,0.169224308492811,0.0793445846918082,-0.260896727672376
571,1224,1.16968100557061,0.571436751201762,0.974797636977341,-0.189970959377949,-0.00771651006004663,-0.0375342779336424,0.308684437893849,0.0903120972619305,-0.128995670379752
572,1225,1.1681894339086,0.571872546279395,0.97447839750249,-0.181492263445296,0.00229752745811462,-0.0377185390933812,0.321523669618981,0.0972149541096418,-0.0643602069417382
573,1226,1.16678482216949,0.572396912661508,0.974152934235672,-0.172801745110965,0.0119817318228493,-0.0379107110178804,0.399878001941679,0.120915815473923,-0.0423400414154649
574,1227,1.16547727849468,0.573013957000464,0.973822378286154,-0.162386423191222,0.0228478175598581,-0.038474995022334,0.259427888830921,0.169452557175819,-0.0928171944274735
575,1228,1.16423272596523,0.573717936954146,0.973485072222809,-0.151938120678091,0.0337116672086994,-0.0390495679399186,0.33239530315239,0.186785541849357,-0.110475876909382
576,1229,1.16304565189325,0.574507677494622,0.973142769805008,-0.141855991461213,0.0454701800064133,-0.0403955012162884,0.220923849549268,0.200668309936922,-0.21732259987054
577,1230,1.16188790559333,0.575361389280758,0.972791115574454,-0.133807004531574,0.0556207999615544,-0.0421828034677856,0.243566335097817,0.196515191634192,-0.269699370372834
578,1231,1.16079562043556,0.576271744410074,0.972429013668881,-0.125239421779302,0.0653716762921369,-0.0438728413112537,0.129867318385121,0.176387106514761,-0.308710561138976
579,1232,1.15979144149157,0.577222437775463,0.972054405651097,-0.11678989861711,0.0736695358808675,-0.0449340336914702,0.101206485865005,0.162601520028237,-0.264373868585297
580,1233,1.15896016292371,0.578168882432601,0.971668443272136,-0.108123557324557,0.079090226278264,-0.0462168300857496,0.105832700943396,0.196241428973792,-0.258265954905715
581,1234,1.15817717978537,0.57914133555694,0.971263111400181,-0.0991434307708303,0.0844902254837254,-0.0464943235270859,0.166048454602939,0.112501855001743,-0.190772515084365
582,1235,1.15752644446946,0.580131892568985,0.970847509889087,-0.0897179411777165,0.0888163766264699,-0.0462839536857705,0.213620388883077,0.19893573499764,-0.112429341251917
583,1236,1.15704245581356,0.581170878846286,0.97042981061444,-0.077912374280779,0.0937743587863038,-0.0452495192706678,0.153222073508298,0.102740812828757,-0.0569651246644203
584,1237,1.15672647010806,0.582245932255553,0.970017820678049,-0.0650910754586213,0.0976496048258535,-0.0436880981328645,0.0664660983727235,0.075924309087858,-0.00589321624083763
585,1238,1.15664203565548,0.583428319989621,0.969621519828914,-0.0501545035806114,0.10364423026734,-0.0408009397893112,0.0769203703756736,0.0634643444973959,0.0930673939291421
586,1239,1.15669880906845,0.584652290181299,0.9692470658622,-0.0366014803320442,0.108766237307809,-0.0367127622834333,0.0842074726942301,0.134016955984187,0.23089080072087
587,1240,1.15689483375102,0.585922101868358,0.96889385255586,-0.0231211444094576,0.113731630594335,-0.0319327967152943,0.146063576914612,0.160518041671818,0.322031103024845
588,1241,1.1572091782727,0.587211392874008,0.968555875701649,-0.0101352919997891,0.116936684144069,-0.0263875277313636,0.159940548586691,0.170396030604625,0.461761764064165
589,1242,1.15779811124738,0.588633971980109,0.968241394006464,0.00590480708091423,0.123726306760579,-0.0209008227235866,0.070932220134714,0.139254185210858,0.45082169924625
590,1243,1.1586747429001,0.590183986892613,0.967946554132493,0.0264161850887299,0.130970541976786,-0.015480297913283,0.0673810676829556,0.124126992099502,0.453664086300035
591,1244,1.15977545743452,0.591810646953074,0.967668461731783,0.0482444922223752,0.140216042640032,-0.0109951578685773,0.0248470160660814,0.14515184671875,0.376397735061277
592,1245,1.16115205188533,0.593535100815464,0.96739865690768,0.0697193486410971,0.147862741360772,-0.00695300660390956,-0.000601425151175717,0.115506955188016,0.388187938922867
593,1246,1.16275303902044,0.595298462391961,0.967133622540121,0.0909579712514421,0.15529488213638,-0.00372211413907542,0.0213245148844476,0.168053594807847,0.355975264070803
594,1247,1.16460889618652,0.597084954169349,0.966867809348321,0.113011474343277,0.161750979058982,-0.00136833887191588,-0.0330843180557443,0.177607003380762,0.293887243856799
595,1248,1.1667442254148,0.598902201463346,0.966600763856232,0.136133975755905,0.168095026675947,0.00161422522417388,-0.0680451745139868,0.28204952847178,0.39793361187191
596,1249,1.16902511041026,0.600669358027141,0.966350402714972,0.157007635090865,0.171986064769426,0.00554171278432988,-0.0681486852231737,0.309817629652689,0.525033359679527
597,1250,1.17160199786964,0.602468941394531,0.966120378559794,0.180585795147295,0.176283015984964,0.0103989050778742,-0.102291526442737,0.413869046173657,0.645633968891719
598,1251,1.17430771858985,0.604266894865351,0.965920443111205,0.201996201708228,0.179328497554976,0.0168756549835124,-0.119776052417939,0.345306262850978,0.829646115339695
599,1252,1.17716081868296,0.60603284819446,0.965752154253889,0.222439871839487,0.180372089441269,0.023708162638157,-0.141935368920478,0.413913691288334,0.920852142456701
600,1253,1.18003149977087,0.607774771728468,0.965613772730094,0.239877750066575,0.181881341064748,0.0305550081048155,-0.0721527571479515,0.340506287806567,0.946421501024024
601,1254,1.18291739069732,0.609445016111646,0.965503582005911,0.250597756817127,0.181178090207205,0.0366639160404853,-0.0926805798361865,0.39507049054723,0.965614669816953
602,1255,1.18568259064433,0.611115869056587,0.965411160206465,0.257431452150662,0.180953443928026,0.0410488199730544,-0.0653534922251574,0.366201462448235,0.858687103269759
603,1256,1.18842788711922,0.612777329645972,0.965330912947638,0.262616250864972,0.180779183937626,0.0438451455956775,0.0191984998812317,0.34508193900013,0.736884172957298
604,1257,1.19118166350473,0.614452313018732,0.965253669409129,0.268187342612663,0.182550726758288,0.045222212395011,0.0391227565745839,0.330457685130156,0.599361434002635
605,1258,1.19395988942292,0.616146952535936,0.965172008767731,0.275060438896841,0.185888791238795,0.0445708419759725,-0.00964067981654281,0.406014484349907,0.388049876670704
606,1259,1.19674690825103,0.617880171390787,0.965079452700759,0.279844649656252,0.190173254741963,0.0432914106235734,0.0476585530648234,0.312495055640741,0.305561057356297
607,1260,1.19954730878649,0.619643400143208,0.964975055103029,0.282325980738909,0.193337625591543,0.0415206575922182,0.0539709333563451,0.360588571800911,0.27873480446685
608,1261,1.20236723852697,0.621445147859108,0.964866193057226,0.283506109822128,0.196141759716366,0.0400265868270093,0.0574283467251302,0.452121709546445,0.303933954325518
609,1262,1.20521024645662,0.623317262729312,0.964764648086881,0.284175115180775,0.200069948712989,0.039323539876438,0.109272078448971,0.435008872473644,0.347998298723083
610,1263,1.20812346879133,0.625260876534807,0.964672095082486,0.287295893081289,0.204639154737717,0.0379841996924357,0.0510071244270749,0.46062479416266,0.272906949913704
611,1264,1.21106447167799,0.627258247752604,0.964678499971104,0.290984755154165,0.209276726058966,0.0384177126135587,0.0664145644181515,0.409053067657208,0.2802207955051
612,1265,1.21411467546199,0.629370533500315,0.964868316893494,0.29551098546859,0.214387434370832,0.0402150996118416,0.148586741335882,0.396139481205406,0.268408779450499
613,1266,1.21716730868507,0.631512422143071,0.965163142024525,0.299086040357037,0.219011987567394,0.0419620855627319,0.146427146826622,0.353468555905823,0.248893823687058
614,1267,1.22034860839782,0.633807866437729,0.965500855240033,0.303824452168363,0.22518969437154,0.0438804742479094,0.19676084307031,0.35499047169774,0.283409950637707
615,1268,1.22354978600677,0.636160128778192,0.965849381396429,0.307453414909552,0.229651081791357,0.0448983440793934,0.239505886272169,0.375114282569858,0.256999484843141
616,1269,1.22623043225888,0.638238922116222,0.966203167246816,0.302948908813609,0.229975840909036,0.0453143484455753,0.211548572890983,0.245868975306999,0.19342932843592
617,1270,1.22814230892566,0.639859987711865,0.966562173287446,0.287961071414043,0.222454755568643,0.0456892772198718,0.231833921807811,0.168882757013611,0.199645874698956
618,1271,1.23157315365641,0.64256915519652,0.966931060610604,0.295066417516142,0.230335632654558,0.0462013261374657,0.308384540604321,0.10543898014091,0.217771677512554
619,1272,1.23417166623987,0.64476528964481,0.967309734251613,0.291405742498048,0.230646566129751,0.0470882564229597,0.38860557960127,0.132745695788255,0.268850076406483
620,1273,1.23733003010769,0.647363880002064,0.967698136267458,0.29299276696907,0.234695035361585,0.0480805744851145,0.436936448032172,0.120411962629852,0.287683032254778
621,1274,1.24023059573711,0.649862729748229,0.968217758923838,0.292709579019772,0.23699642314988,0.0498870840085613,0.406909630856722,0.163388883354347,0.21712192460532
622,1275,1.24335103800927,0.652557873974761,0.968720681219026,0.29674755391725,0.241893949960011,0.050566999758438,0.340217367999257,0.151102847916517,0.11548321077227
623,1276,1.24632872989404,0.655217536054706,0.969198924614028,0.298629127233252,0.247721247370957,0.0499433298350207,0.284626054392029,0.195177439370949,0.0133698365798107
624,1277,1.24948018102017,0.658060579614264,0.969637429658487,0.302398848851226,0.255393777396032,0.0483460962632868,0.288186857556105,0.17295790973291,-0.0517294733976705
625,1278,1.2526200122589,0.660941708142513,0.970030240056853,0.305385493606734,0.2627316157318,0.0455950869025413,0.273647533106058,0.19568529415261,-0.126693217837778
626,1279,1.25583260010912,0.6639072888023,0.970378071967934,0.31016022991675,0.270294453950815,0.0424422552269421,0.204469027540519,0.118268722967226,-0.159670893311125
627,1280,1.25905319336266,0.666903131839315,0.970692575792388,0.313319430628844,0.276967550668403,0.0397457100568213,0.124702956150653,0.0291676251741646,-0.124955525698703
628,1281,1.2623192976369,0.66991545088843,0.970982202281839,0.317747273940035,0.28198919863081,0.0368357812666172,0.090202955741939,-0.0326421206374582,-0.140044038943817
629,1282,1.26561442563102,0.672914050231486,0.971252927837679,0.321133997347025,0.286260835978764,0.0345629138368857,0.179084642979181,-0.0610522359081166,-0.0988919748808485
630,1283,1.26894936875507,0.675871956315754,0.971512104315434,0.323703306914001,0.288906726336979,0.0338461623486438,0.234181792738821,-0.017433116151142,0.0301885211195503
631,1284,1.27226454539606,0.678795637075811,0.971772506144123,0.32219698850914,0.291118745186654,0.0351886008763382,0.218604717296604,0.0575264995738846,0.209344668249505
632,1285,1.27548461411843,0.681702638450793,0.972047437425302,0.316776994194876,0.292679950658938,0.0379659150272809,0.287191772147242,0.0892721670654792,0.337538772064077
633,1286,1.2785869645294,0.684612281809216,0.972344438048339,0.310026815747335,0.294620241006471,0.0417222589364951,0.427411025081277,0.0620460154510272,0.421093017831667
634,1287,1.28166569989876,0.687603361163558,0.972667190351645,0.308113091631702,0.300063610486812,0.044098100712433,0.457852442907123,0.0952505884749091,0.310576559623524
635,1288,1.28469930766475,0.690683994097925,0.972988426183199,0.309292110068815,0.309210807890649,0.0444330195090956,0.410716924389049,0.164686646628687,0.143314671732719
636,1289,1.28781076993073,0.693932445344318,0.973290385959119,0.312916760770884,0.31804759662744,0.0425948098039767,0.229945888893948,0.306836721719926,-0.0220438338158257
637,1290,1.29083123344179,0.697228977956425,0.973562444675159,0.314166644855361,0.324135952080977,0.0395402187901583,0.261550480064857,0.387988645114273,-0.126809951272111
638,1291,1.29382110669227,0.700618939144074,0.973803395291017,0.312277111144378,0.328174951756622,0.0365718717162902,0.12311706257176,0.347902329475709,-0.118758789455164
639,1292,1.29671696557938,0.704085163724651,0.974022621397192,0.306319344318851,0.330598873499425,0.0350472395779694,0.0575681689222013,0.0834175064525718,-3.06334002615001e-06
640,1293,1.29958662788828,0.707599220398769,0.974226945349614,0.301345417405011,0.332380621227597,0.0340746277304218,0.0797499313621979,-0.0711088188958987,0.0567122435037158
641,1294,1.30240093831108,0.711206412850678,0.974422095471288,0.298559128440659,0.33885463751274,0.0329303438544018,0.0676920237073138,-0.186119345159711,0.0454980159202488
642,1295,1.30523812572984,0.714903794398015,0.974605065323607,0.296253832824021,0.346269531251924,0.0319436475687079,0.0986763766669348,-0.140715607261738,0.0567684104924405
643,1296,1.30813130322541,0.71867910374612,0.974775052468777,0.294604428004731,0.353517428309198,0.0310857155826133,0.0689713344329176,-0.101959076045697,0.0727646522864046
644,1297,1.31107772821855,0.722484026699047,0.974930394954946,0.294305115136634,0.359310839086075,0.0294430340557898,0.0142049367439135,-0.134576706965881,0.0120068588303242
645,1298,1.31406202744004,0.726285850679662,0.975065107169088,0.294458589093656,0.362156019864925,0.025629402933599,-0.0881013294041746,-0.275882143651386,-0.171852342624328
646,1299,1.31704005036366,0.730071845215146,0.975168539989352,0.293969498593414,0.362263894138254,0.0200983930979112,-0.233151550363913,-0.424993680365651,-0.324061786660793
647,1300,1.32044466374191,0.734172790577304,0.975323746609357,0.299530165933241,0.364763797876164,0.0137634764548179,-0.268585545323269,-0.547698878131922,-0.468166046569463
648,1301,1.32327955915545,0.737777538840423,0.975490166535738,0.297203669503637,0.358028255630288,0.00623449573760489,-0.334029903710069,-0.575896943859374,-0.620454887238806
649,1302,1.32640721639658,0.741523042667137,0.975627328932949,0.29725004128757,0.351333015476331,-0.000840515598993444,-0.384143726041594,-0.569277109249854,-0.641217526713602
650,1303,1.32882952247307,0.74461738806474,0.975763505495791,0.288080763243144,0.334628372835075,-0.00692470256733174,-0.415835178100292,-0.6014767170427,-0.663206128811707
651,1304,1.32983139433993,0.746467592065144,0.975898797439174,0.249553133747124,0.294452693373299,-0.0112447600377106,-0.376007059375581,-0.555386651417148,-0.587179914146556
652,1305,1.32577611955082,0.744134029372688,0.976028203876352,0.128669560275618,0.186991766398132,-0.0139603677364994,-0.350598600423028,-0.45787655745485,-0.466833414351203
653,1306,1.31509821076442,0.736309832102373,0.976142482871811,-0.086901784372532,0.0049689381204639,-0.01552314751729,-0.478508447351346,-0.470623195554594,-0.372982473432258
654,1307,1.30053002440097,0.725155552055142,0.976236403726174,-0.330493127888961,-0.199969167864767,-0.0150071237860666,-0.39391280207889,-0.560197718400603,-0.20351547245885
655,1308,1.28549002208911,0.713390714225903,0.976331649360715,-0.543230097267275,-0.381091827623492,-0.0125173037300691,-0.326783436189346,-0.43845338266309,-0.0647062661134994
656,1309,1.27211667467932,0.702797664432077,0.976433097830292,-0.693062029036926,-0.509757453358407,-0.0104636310548151,-0.379107626764946,-0.324323136597072,-0.0903009244100264
657,1310,1.26121614810235,0.694072991104348,0.97652834100603,-0.777378025801575,-0.585011559920082,-0.00981810133041856,-0.524255761701445,-0.329276359675452,-0.188595024466641
658,1311,1.2531508413122,0.687537973807515,0.976602757229733,-0.79880784668893,-0.610803725078568,-0.0102371038485353,-0.624769103457942,-0.369483615091893,-0.231425190181707
659,1312,1.24781386296584,0.683074722040492,0.976635611488444,-0.770571440581465,-0.598807555929029,-0.0140865042893894,-0.800457785954598,-0.435021756402732,-0.486616018319041
660,1313,1.24489226622188,0.680503091334044,0.976613978476382,-0.709843378188213,-0.557396598761108,-0.0178585042212246,-0.819912045071751,-0.498448298622335,-0.464497063920399
661,1314,1.24391555250916,0.679386368762399,0.976551025560879,-0.631439938047686,-0.500401092699714,-0.0202485659887797,-0.573397149396366,-0.271363776951911,-0.313111386377776
662,1315,1.24450186225467,0.679490206845149,0.976464981953434,-0.542945348703766,-0.429925072026166,-0.0200779403002312,-0.25955274914933,-0.17781013251181,-0.0820631774258623
663,1316,1.24626059015771,0.680515052354144,0.976378948440779,-0.45164607774802,-0.358322486295318,-0.0183709445106164,-0.181166394318141,-0.353846006396915,0.0232290801703513
664,1317,1.24894330932573,0.682239507589801,0.976273948329539,-0.355611720219113,-0.283187719634336,-0.0193744904548259,-0.162361712850913,-0.197479437274932,-0.133550582457541
665,1318,1.25229551555966,0.684473991580441,0.976126309379895,-0.255937594834257,-0.20908775069327,-0.0237367703866261,-0.202957485209326,-0.185434544938125,-0.339196820866393
666,1319,1.25618103265348,0.687134541959813,0.975925876321745,-0.16097181644609,-0.138432915275901,-0.0289164557992129,-0.324111703778504,-0.140428242825495,-0.399365575700608
667,1320,1.2603480352234,0.690048950117606,0.9756749823321,-0.0757846006668557,-0.0767144342655402,-0.0343915018475701,-0.397208703788223,-0.202368435572822,-0.454444407135065
668,1321,1.26464967418567,0.693139586213348,0.975375669791616,0.000309602281450621,-0.0196255467605661,-0.0399308202472499,-0.385467361809359,-0.0687672358050533,-0.464379507882913
669,1322,1.26896266212448,0.69628567023916,0.975039066077701,0.0653353038694575,0.0271825871576607,-0.0448751393651516,-0.420878287682315,-0.153965767513877,-0.466288911010974
670,1323,1.27317300400081,0.699387375634607,0.974681746520992,0.118096163801131,0.0638686030763164,-0.0476342212333631,-0.312713313185359,-0.254489692305926,-0.34177349278668
671,1324,1.27719487746923,0.7023632220777,0.97431653415207,0.159445850219169,0.0900134007949799,-0.0499428149038532,-0.141763695291892,-0.376360794174131,-0.365712834001202
672,1325,1.28101699329294,0.705153050851889,0.973934630947799,0.195496755985818,0.108926682356266,-0.0533920118118709,0.0405234969966127,-0.250254274163336,-0.46322808985876
673,1326,1.28466070286726,0.707742096844946,0.973521566840019,0.227007404186212,0.120869332854905,-0.0596778426613948,0.0332118423926506,-0.431266215765748,-0.695219404000401
674,1327,1.28812803230609,0.710118047269216,0.97307214891483,0.251244445809155,0.125851307658159,-0.06500781963825,0.0416900133836247,-0.63243918565799,-0.668259935914693
675,1328,1.29143255493339,0.712263110621092,0.972595206686248,0.267125791185124,0.127019130467675,-0.0697706704302323,-0.113247158652521,-0.682621992521101,-0.652354824341276
676,1329,1.2945814343709,0.714181237772175,0.97209570381326,0.276164733286238,0.123682193204886,-0.0728338341758081,-0.18281074595908,-0.612518502838292,-0.559141017535223
677,1330,1.29757189367329,0.715884480480609,0.971581272548436,0.278633727336758,0.117674710893665,-0.0749590163486672,-0.0594412302758366,-0.585352251180568,-0.512603195022175
678,1331,1.3004100367935,0.717409698895961,0.971056665985896,0.277712928054773,0.111862358367919,-0.076180109889282,0.119530206342219,-0.420610723182806,-0.457893719043532
679,1332,1.30314305773473,0.718790374576715,0.970518960031706,0.276254222156773,0.10722322565462,-0.0788737941839469,0.131202301093501,-0.213817408268668,-0.567051933898064
680,1333,1.30580037800147,0.720047229327754,0.96996460796763,0.271766486074878,0.104525886117034,-0.0836224312977159,0.0833964829219922,0.0542589749038987,-0.732451088219592
681,1334,1.30839092977016,0.721166281271304,0.969374257336114,0.267703770408781,0.0989062773006666,-0.0904389016544391,-0.129722936073705,-0.13423069924543,-0.921534903854116
682,1335,1.31095468881866,0.722136860621197,0.968733546838695,0.264745110259198,0.0898344516492133,-0.0966621529699122,-0.294131666867654,-0.257549605105567,-0.854081290549398
683,1336,1.31349096360008,0.722902981033515,0.96805560176669,0.259407150112655,0.0771528302543489,-0.101197656714349,-0.431563917877519,-0.352200294714545,-0.701866122864134
684,1337,1.31595502186227,0.723466653563891,0.967359929793345,0.24989169646741,0.0619504933751273,-0.103141514335087,-0.468827658975673,-0.619623728708952,-0.471875330598989
685,1338,1.31831015113337,0.723811993334144,0.966683174487644,0.23597978325208,0.0435475561860479,-0.0991614934633245,-0.338130193697267,-1.0082731738794,0.0052693934291271
686,1339,1.32052325525684,0.723975750255091,0.966080893468987,0.219702819160595,0.0259471613391777,-0.0891443240430925,-0.052012678584089,-1.14965028570126,0.400804687311239
687,1340,1.32265390605211,0.724085460388732,0.965574949673422,0.209730535815285,0.0202545283420907,-0.0759271091523958,0.0880580796829686,-0.777217286193065,0.626804533531272
688,1341,1.3247961475364,0.724340450657537,0.965175517049931,0.210197595595736,0.0281019943261085,-0.0614188772493681,0.255676095164314,-0.476424724422281,0.770890226066768
